File: TAInstCalorimetry/DATA/calorimetry_data_1.csv
"Time","Temperature","Heat flow","Heat","Normalized heat flow","Normalized heat","Time markers"
-1874.12,20,NaN,NaN,NaN,NaN,""
-1872.26,20,-4.41834e-06,NaN,-1.02776e-06,NaN,""
-1851.59,20,-4.02016e-06,NaN,-9.35138e-07,NaN,""
-1835.82,20,-3.50126e-06,NaN,-8.14435e-07,NaN,""
-1825.28,20,-3.90806e-06,NaN,-9.09061e-07,NaN,""
-1805.17,20,-3.55715e-06,NaN,-8.27436e-07,NaN,""
-1768.38,20,-4.14532e-06,NaN,-9.64251e-07,NaN,""
-1719.97,20,-3.36823e-06,NaN,-7.83492e-07,NaN,""
-1698.42,20,-3.53452e-06,NaN,-8.22172e-07,NaN,""
-1673.31,20,-3.05748e-06,NaN,-7.11208e-07,NaN,""
-1650.9,20,-3.2421e-06,NaN,-7.54151e-07,NaN,""
-1607.04,20,-2.47151e-06,NaN,-5.74902e-07,NaN,""
-1580.54,20,-2.45039e-06,NaN,-5.69991e-07,NaN,""
-1559.46,20,-1.74435e-06,NaN,-4.05758e-07,NaN,""
-1544.61,20,-2.21994e-06,NaN,-5.16384e-07,NaN,""
-1393.04,20,-1.19157e-06,NaN,-2.77174e-07,NaN,""
-1294.54,20,-1.15943e-06,NaN,-2.69697e-07,NaN,""
-1278.64,20,-6.9201e-07,NaN,-1.6097e-07,NaN,""
-1245.32,20,-9.01383e-07,NaN,-2.09673e-07,NaN,""
-1208.54,20,-2.87427e-07,NaN,-6.68591e-08,NaN,""
-1187.29,20,-4.86876e-07,NaN,-1.13253e-07,NaN,""
-1164.64,20,-5.28533e-08,NaN,-1.22943e-08,NaN,""
-1141.76,20,-1.51311e-07,NaN,-3.51968e-08,NaN,""
-1130.69,20,9.40399e-08,NaN,2.18748e-08,NaN,""
-1087,20,-4.35197e-07,NaN,-1.01232e-07,NaN,""
-1045.31,20,3.01952e-07,NaN,7.02377e-08,NaN,""
-1025.92,20,2.20471e-07,NaN,5.12843e-08,NaN,""
-998.217,20,5.07116e-07,NaN,1.17961e-07,NaN,""
-983.463,20,1.29066e-06,NaN,3.00224e-07,NaN,""
-966.576,20,1.18825e-06,NaN,2.76402e-07,NaN,""
-945.252,20,1.40706e-06,NaN,3.273e-07,NaN,""
-903.353,20,1.13803e-06,NaN,2.64719e-07,NaN,""
-850.094,20,7.75532e-07,NaN,1.80398e-07,NaN,""
-812.334,20,1.13645e-06,NaN,2.64351e-07,NaN,""
-793.562,20,9.82609e-07,NaN,2.28567e-07,NaN,""
-766.756,20,1.63259e-06,NaN,3.7976e-07,NaN,""
-730.764,20,2.26292e-06,NaN,5.26384e-07,NaN,""
-717.6,20,1.87671e-06,NaN,4.36547e-07,NaN,""
-692.658,20,2.15275e-06,NaN,5.00755e-07,NaN,""
-668.115,20,1.61542e-06,NaN,3.75767e-07,NaN,""
-656.154,20,1.9087e-06,NaN,4.43987e-07,NaN,""
-641.6,20,1.38624e-06,NaN,3.22456e-07,NaN,""
-617.076,20,1.70042e-06,NaN,3.95539e-07,NaN,""
-578.699,20,1.76842e-06,NaN,4.11356e-07,NaN,""
-562.264,20,2.23992e-06,NaN,5.21032e-07,NaN,""
-527.625,20,1.9805e-06,NaN,4.60688e-07,NaN,""
-467.369,20,1.65176e-06,NaN,3.84221e-07,NaN,""
-446.517,20,1.89136e-06,NaN,4.39954e-07,NaN,""
-416.5,20,1.81449e-06,NaN,4.22073e-07,NaN,""
-388.904,20,2.2784e-06,NaN,5.29983e-07,NaN,""
-376.264,20,1.76032e-06,NaN,4.09472e-07,NaN,""
-337.864,20,2.12202e-06,NaN,4.93607e-07,NaN,""
-311.502,20,1.64327e-06,NaN,3.82245e-07,NaN,""
-260.557,20,1.70621e-06,NaN,3.96885e-07,NaN,""
-237.693,20,1.39285e-06,NaN,3.23995e-07,NaN,""
-214.302,20,1.82609e-06,NaN,4.24771e-07,NaN,""
-183.85,20,1.38047e-06,NaN,3.21114e-07,NaN,""
-128.745,20,2.23659e-06,NaN,5.20258e-07,NaN,""
-96.3329,20,1.66606e-06,NaN,3.87546e-07,NaN,""
-74.2636,20,1.9773e-06,NaN,4.59944e-07,NaN,""
2547.95,20,NaN,NaN,NaN,NaN,"Reaction start. Measuring position. Signal correct"
2548.74,20,0.000133963,0.00010506,3.11615e-05,2.44382e-05,""
2807.74,20,0.000505669,0.033621,0.000117625,0.00782065,""
2818.74,20,0.0205204,0.119277,0.00477329,0.0277454,""
2829.74,20,0.0698871,0.604132,0.0162566,0.140528,""
2843.49,20,0.140157,2.05234,0.0326023,0.477399,""
2854.49,20,0.189947,3.87688,0.0441839,0.90181,""
2865.86,20,0.231298,6.2839,0.0538026,1.46171,""
2877.49,20,0.262696,9.16636,0.0611062,2.13221,""
2890.74,20,0.286867,12.82,0.0667288,2.98209,""
2901.74,20,0.299059,16.0481,0.0695647,3.73298,""
2913.74,20,0.306205,19.685,0.0712271,4.57897,""
2924.74,20,0.308292,23.0676,0.0717125,5.3658,""
2936.74,20,0.307042,26.7624,0.0714218,6.22526,""
2951.86,20,0.301647,31.3697,0.0701669,7.29698,""
2966.61,20,0.293734,35.7633,0.0683262,8.31898,""
2987.24,20,0.280092,41.6846,0.0651528,9.69634,""
3015.24,20,0.259421,49.2405,0.0603445,11.4539,""
3060.24,20,0.225994,60.1562,0.052569,13.9931,""
3087.52,20,0.206983,66.0596,0.0481468,15.3663,""
3113.3,20,0.190231,71.1774,0.0442499,16.5567,""
3135.86,20,0.176577,75.3136,0.041074,17.5189,""
3163.61,20,0.161058,79.995,0.0374641,18.6078,""
3195.24,20,0.145004,84.8303,0.0337297,19.7326,""
3224.19,20,0.131731,88.8334,0.0306423,20.6637,""
3257.24,20,0.118103,92.9574,0.0274722,21.623,""
3290.28,20,0.105937,96.6556,0.0246423,22.4833,""
3319.24,20,0.0963649,99.5821,0.0224156,23.164,""
3350.61,20,0.0870235,102.456,0.0202427,23.8326,""
3386.74,20,0.0774493,105.424,0.0180157,24.5228,""
3420.24,20,0.0695845,107.884,0.0161862,25.0951,""
3454.24,20,0.0624845,110.127,0.0145347,25.6168,""
3499.24,20,0.0542855,112.749,0.0126275,26.2269,""
3544.24,20,0.0472679,115.03,0.0109951,26.7574,""
3589.24,20,0.0412576,117.019,0.00959702,27.22,""
3634.24,20,0.0361084,118.756,0.00839926,27.6242,""
3681.72,20,0.0314711,120.358,0.00732057,27.9967,""
3735.24,20,0.027076,121.921,0.00629822,28.3603,""
3786.96,20,0.0235223,123.227,0.00547157,28.6641,""
3846.67,20,0.0201192,124.527,0.00467998,28.9664,""
3906.72,20,0.0173179,125.648,0.00402834,29.2272,""
3972.67,20,0.0148213,126.705,0.00344763,29.4731,""
4041.69,20,0.0127262,127.653,0.00296027,29.6936,""
4120.42,20,0.0108434,128.577,0.00252231,29.9087,""
4203.4,20,0.00930791,129.411,0.00216513,30.1026,""
4294.46,20,0.00802132,130.197,0.00186586,30.2855,""
4392.15,20,0.00698072,130.928,0.0016238,30.4554,""
4503.12,20,0.00610548,131.651,0.00142021,30.6237,""
4630.24,20,0.00537951,132.379,0.00125134,30.7929,""
4795.85,20,0.0047204,133.212,0.00109802,30.9867,""
5009.97,20,0.00415233,134.157,0.000965883,31.2066,""
5260.61,20,0.00371482,135.14,0.000864113,31.4351,""
5595.35,20,0.00332233,136.313,0.000772815,31.7081,""
5963.11,20,0.003013,137.476,0.00070086,31.9785,""
6387.82,20,0.00273981,138.695,0.000637314,32.2621,""
6752.58,20,0.00255091,139.659,0.000593373,32.4863,""
6952,20,0.00246111,140.158,0.000572485,32.6025,""
7387.29,20,0.00229212,141.191,0.000533175,32.8428,""
7685.33,20,0.00219481,141.86,0.000510539,32.9983,""
8221.93,20,0.00204416,142.996,0.000475496,33.2627,""
8530.16,20,0.00196814,143.614,0.000457814,33.4065,""
8944.72,20,0.00188515,144.412,0.000438509,33.5921,""
9286.6,20,0.00182692,145.047,0.000424963,33.7396,""
9731.53,20,0.00175716,145.844,0.000408736,33.925,""
10320.9,20,0.00169556,146.859,0.000394407,34.1613,""
10619.7,20,0.00167061,147.362,0.000388604,34.2783,""
11022,20,0.0016475,148.03,0.000383229,34.4336,""
11471.5,20,0.00160679,148.761,0.000373759,34.6035,""
11840.2,20,0.00158855,149.349,0.000369515,34.7405,""
12114.8,20,0.00157641,149.784,0.000366692,34.8416,""
12508.1,20,0.00155657,150.4,0.000362078,34.9849,""
12823.3,20,0.00155774,150.89,0.000362349,35.0989,""
13183.7,20,0.00159432,151.457,0.000370858,35.2307,""
13595.5,20,0.00166643,152.128,0.000387632,35.3868,""
14262.3,20,0.0017862,153.281,0.000415492,35.6549,""
14604.6,20,0.00183485,153.901,0.000426809,35.7992,""
15044.5,20,0.00188902,154.72,0.00043941,35.9897,""
15456.2,20,0.00193572,155.507,0.000450271,36.1729,""
15948.4,20,0.00199178,156.474,0.000463313,36.3978,""
16177.7,20,0.00201814,156.934,0.000469445,36.5047,""
17084.3,20,0.00213353,158.815,0.000496284,36.9422,""
17668,20,0.00221439,160.083,0.000515095,37.2373,""
17979.7,20,0.00226144,160.781,0.00052604,37.3996,""
18429.1,20,0.00233083,161.813,0.000542179,37.6396,""
19054.5,20,0.0024351,163.303,0.000566434,37.9862,""
19766.8,20,0.00256232,165.082,0.000596027,38.4001,""
20423.1,20,0.00268913,166.805,0.000625524,38.8009,""
20887.6,20,0.0027846,168.076,0.000647731,39.0966,""
21254.2,20,0.0028632,169.112,0.000666016,39.3374,""
21840.5,20,0.0029929,170.828,0.000696185,39.7367,""
22208.8,20,0.00307785,171.946,0.000715945,39.9966,""
22702.1,20,0.00319624,173.493,0.000743484,40.3566,""
23503.7,20,0.00339743,176.135,0.000790285,40.9711,""
23750.9,20,0.00346124,176.983,0.000805126,41.1683,""
24114.2,20,0.00355879,178.258,0.000827819,41.4649,""
24551.2,20,0.00367777,179.839,0.000855495,41.8327,""
24973.7,20,0.00379751,181.418,0.000883348,42.2,""
25442.2,20,0.00393168,183.228,0.000914556,42.6211,""
26075.9,20,0.0041224,185.78,0.00095892,43.2147,""
26423.9,20,0.00423001,187.233,0.000983952,43.5527,""
26936.8,20,0.00439115,189.444,0.00102143,44.0669,""
27327.9,20,0.00451508,191.185,0.00105026,44.4721,""
27815.4,20,0.0046738,193.425,0.00108718,44.9931,""
28316.8,20,0.00483725,195.81,0.0011252,45.5477,""
28713.5,20,0.00496824,197.755,0.00115567,46.0002,""
29369.2,20,0.00518888,201.084,0.001207,46.7747,""
29837.8,20,0.00534672,203.553,0.00124371,47.349,""
30380.8,20,0.00553262,206.507,0.00128696,48.036,""
30799.2,20,0.00567679,208.851,0.00132049,48.5814,""
31190.2,20,0.00581102,211.098,0.00135171,49.1039,""
31564.6,20,0.00594112,213.298,0.00138198,49.6157,""
32470.5,20,0.00625502,218.822,0.00145499,50.9006,""
32968.9,20,0.00642746,221.982,0.0014951,51.6358,""
33421.2,20,0.00658207,224.924,0.00153107,52.3202,""
33804.4,20,0.00671453,227.472,0.00156188,52.9128,""
34313.1,20,0.00688714,230.932,0.00160203,53.7175,""
34576.4,20,0.00697673,232.757,0.00162287,54.1421,""
35105.2,20,0.00715333,236.493,0.00166395,55.0111,""
36277,20,0.00753437,245.099,0.00175259,57.0131,""
36711.9,20,0.00767233,248.406,0.00178468,57.7823,""
37173.9,20,0.00781631,251.984,0.00181817,58.6146,""
37715.2,20,0.00798017,256.26,0.00185629,59.6092,""
38382.5,20,0.00817586,261.65,0.00190181,60.863,""
38716,20,0.0082707,264.393,0.00192387,61.501,""
39081,20,0.00837262,267.43,0.00194757,62.2076,""
39530.8,20,0.00849306,271.224,0.00197559,63.09,""
39986.3,20,0.00861177,275.12,0.0020032,63.9962,""
40258.4,20,0.00868054,277.472,0.0020192,64.5435,""
40766.9,20,0.00880462,281.919,0.00204806,65.5777,""
41174.1,20,0.00889796,285.523,0.00206978,66.4161,""
41488.9,20,0.00896949,288.335,0.00208641,67.0703,""
42117.8,20,0.00910282,294.019,0.00211743,68.3924,""
42444.1,20,0.00916813,297,0.00213262,69.0858,""
42924,20,0.00925911,301.421,0.00215378,70.1142,""
43188.1,20,0.00930581,303.873,0.00216465,70.6846,""
43772,20,0.00940467,309.336,0.00218764,71.9552,""
44358.9,20,0.00949273,314.882,0.00220813,73.2454,""
44825.4,20,0.00955789,319.325,0.00222328,74.279,""
45469.6,20,0.00963624,325.508,0.00224151,75.7171,""
46124.2,20,0.00970522,331.84,0.00225755,77.19,""
46520.5,20,0.00974108,335.693,0.00226589,78.0862,""
46818,20,0.00976639,338.595,0.00227178,78.7613,""
47123.4,20,0.00978848,341.58,0.00227692,79.4558,""
47766.6,20,0.00982888,347.89,0.00228632,80.9234,""
48025.2,20,0.00984244,350.434,0.00228947,81.5152,""
48300.8,20,0.0098555,353.148,0.00229251,82.1466,""
49239.2,20,0.0098929,362.414,0.00230121,84.302,""
49938.9,20,0.00992014,369.346,0.00230755,85.9143,""
50177.9,20,0.00993279,371.718,0.00231049,86.4661,""
50764.6,20,0.00997229,377.556,0.00231968,87.8241,""
51497.7,20,0.0100521,384.893,0.00233824,89.5309,""
51982.1,20,0.0101244,389.779,0.00235506,90.6674,""
52398.7,20,0.0101931,394.012,0.00237104,91.652,""
53046.3,20,0.0102958,400.647,0.00239494,93.1953,""
53571.6,20,0.0103687,406.075,0.00241188,94.458,""
54049.9,20,0.0104248,411.048,0.00242494,95.6147,""
54384.6,20,0.0104577,414.543,0.0024326,96.4277,""
54804.1,20,0.0104919,418.938,0.00244054,97.45,""
55278.5,20,0.0105132,423.92,0.00244551,98.6091,""
55679.7,20,0.0105221,428.14,0.00244757,99.5907,""
56071.4,20,0.0105204,432.262,0.00244717,100.549,""
56407.8,20,0.0105111,435.8,0.002445,101.372,""
56748.6,20,0.0104962,439.379,0.00244155,102.205,""
57250.1,20,0.0104623,444.635,0.00243365,103.428,""
57586.1,20,0.0104337,448.146,0.002427,104.244,""
58065,20,0.0103828,453.13,0.00241516,105.404,""
58506.5,20,0.0103279,457.702,0.00240239,106.467,""
58917.5,20,0.0102705,461.936,0.00238904,107.452,""
59488.9,20,0.0101838,467.78,0.00236887,108.811,""
59916.6,20,0.010113,472.121,0.0023524,109.821,""
60302.7,20,0.0100467,476.012,0.00233698,110.726,""
60872.6,20,0.00994499,481.71,0.00231333,112.052,""
61306.2,20,0.00986559,486.005,0.00229486,113.051,""
61721.4,20,0.00978883,490.084,0.002277,114,""
61990.8,20,0.00973868,492.714,0.00226534,114.611,""
62360.5,20,0.00966978,496.302,0.00224931,115.446,""
62715.4,20,0.00960301,499.722,0.00223378,116.241,""
63380.4,20,0.0094771,506.067,0.00220449,117.717,""
64543.9,20,0.00925936,516.966,0.00215384,120.253,""
64904.8,20,0.00919382,520.296,0.0021386,121.027,""
65641.2,20,0.00906158,527.017,0.00210783,122.591,""
66016.7,20,0.00899474,530.407,0.00209229,123.379,""
66520.7,20,0.00890792,534.919,0.00207209,124.429,""
66980.4,20,0.00883037,538.995,0.00205405,125.377,""
67433.3,20,0.00875613,542.978,0.00203678,126.303,""
68064.2,20,0.0086541,548.469,0.00201305,127.581,""
68576.1,20,0.00857476,552.879,0.00199459,128.606,""
69126.6,20,0.00849388,557.577,0.00197578,129.699,""
69709,20,0.00841136,562.499,0.00195659,130.844,""
70196.4,20,0.0083448,566.584,0.0019411,131.794,""
70747.3,20,0.00827369,571.161,0.00192456,132.859,""
71171.5,20,0.00822098,574.659,0.0019123,133.673,""
71968,20,0.00812927,581.17,0.00189097,135.187,""
72556.7,20,0.00806543,585.937,0.00187612,136.296,""
73051,20,0.00801663,589.912,0.00186477,137.221,""
73319.5,20,0.00799245,592.061,0.00185914,137.721,""
73744.9,20,0.00795402,595.453,0.0018502,138.51,""
74580.8,20,0.00788727,602.073,0.00183468,140.05,""
75056.6,20,0.00785422,605.818,0.00182699,140.921,""
76084.9,20,0.0077926,613.861,0.00181265,142.792,""
76960.4,20,0.00775315,620.665,0.00180348,144.374,""
78053.9,20,0.00771816,629.122,0.00179534,146.341,""
78493.1,20,0.00770897,632.51,0.0017932,147.129,""
79354.6,20,0.00769646,639.145,0.00179029,148.673,""
80052.8,20,0.00769197,644.517,0.00178925,149.922,""
80669.2,20,0.00769467,649.259,0.00178987,151.026,""
81194.8,20,0.00769902,653.304,0.00179089,151.967,""
81590.2,20,0.00770488,656.35,0.00179225,152.675,""
82246.4,20,0.00771825,661.41,0.00179536,153.852,""
83061.6,20,0.00774047,667.711,0.00180053,155.318,""
83570.3,20,0.00775674,671.652,0.00180431,156.234,""
84468.9,20,0.00779404,678.638,0.00181299,157.86,""
84830.3,20,0.00781019,681.458,0.00181675,158.515,""
85246.2,20,0.00783073,684.711,0.00182152,159.272,""
85639.9,20,0.00785122,687.798,0.00182629,159.99,""
86170.1,20,0.00788105,691.968,0.00183323,160.96,""
87111.6,20,0.00793815,699.415,0.00184651,162.692,""
87837.3,20,0.00798558,705.193,0.00185754,164.036,""
88241,20,0.00801304,708.422,0.00186393,164.788,""
88764.1,20,0.00804603,712.622,0.00187161,165.765,""
89083.4,20,0.00806702,715.195,0.00187649,166.363,""
89709.8,20,0.00810504,720.259,0.00188533,167.541,""
90122.3,20,0.00812793,723.607,0.00189066,168.32,""
90788.8,20,0.00816152,729.037,0.00189847,169.583,""
91228.8,20,0.00817959,732.632,0.00190267,170.419,""
91858.7,20,0.00819717,737.79,0.00190676,171.619,""
92125.4,20,0.00820205,739.977,0.0019079,172.128,""
92815.9,20,0.0082042,745.642,0.0019084,173.446,""
93012.1,20,0.00820291,747.252,0.0019081,173.82,""
93344.8,20,0.0081961,749.98,0.00190651,174.455,""
93748.8,20,0.00818427,753.289,0.00190376,175.224,""
94419,20,0.00814868,758.763,0.00189548,176.498,""
95294.1,20,0.00807635,765.865,0.00187866,178.15,""
95831.7,20,0.00801581,770.191,0.00186458,179.156,""
96311.6,20,0.00795373,774.024,0.00185013,180.047,""
96604.5,20,0.00791013,776.346,0.00183999,180.588,""
97721.7,20,0.00771818,785.08,0.00179534,182.619,""
98078.3,20,0.00764928,787.821,0.00177932,183.257,""
98307.1,20,0.00760225,789.566,0.00176838,183.663,""
98820.2,20,0.00749427,793.439,0.00174326,184.564,""
99352.1,20,0.00737528,797.393,0.00171558,185.483,""
100279,20,0.00716005,804.128,0.00166551,187.05,""
100706,20,0.00705664,807.164,0.00164146,187.756,""
101125,20,0.00695541,810.102,0.00161791,188.44,""
101463,20,0.00687344,812.441,0.00159885,188.984,""
101907,20,0.0067652,815.467,0.00157367,189.688,""
102522,20,0.00661708,819.584,0.00153921,190.645,""
102995,20,0.00650413,822.687,0.00151294,191.367,""
103379,20,0.00641373,825.164,0.00149191,191.943,""
103697,20,0.00634084,827.191,0.00147496,192.415,""
104448,20,0.00617064,831.893,0.00143537,193.509,""
104964,20,0.00605686,835.047,0.0014089,194.242,""
105897,20,0.00586228,840.604,0.00136364,195.535,""
106223,20,0.00579682,842.507,0.00134841,195.977,""
106617,20,0.00571855,844.776,0.00133021,196.505,""
107156,20,0.00561714,847.827,0.00130661,197.215,""
108164,20,0.00543447,853.4,0.00126412,198.511,""
108757,20,0.00533415,856.593,0.00124079,199.254,""
109162,20,0.00526824,858.738,0.00122546,199.753,""
109531,20,0.00520977,860.67,0.00121186,200.202,""
109976,20,0.00514011,862.972,0.00119565,200.738,""
110727,20,0.00502953,866.791,0.00116993,201.626,""
111073,20,0.00498032,868.526,0.00115848,202.03,""
111606,20,0.0049068,871.158,0.00114138,202.642,""
112178,20,0.00483157,873.943,0.00112388,203.29,""
112682,20,0.00476642,876.362,0.00110873,203.852,""
113088,20,0.00471713,878.287,0.00109726,204.3,""
113379,20,0.00468161,879.655,0.001089,204.618,""
114029,20,0.0046054,882.674,0.00107127,205.321,""
114468,20,0.00455563,884.682,0.0010597,205.788,""
114785,20,0.0045186,886.121,0.00105108,206.123,""
115448,20,0.00444772,889.095,0.00103459,206.814,""
115970,20,0.00439264,891.402,0.00102178,207.351,""
116286,20,0.00435989,892.782,0.00101416,207.672,""
116643,20,0.00432431,894.334,0.00100589,208.033,""
117026,20,0.00428619,895.982,0.00099702,208.416,""
117370,20,0.00425449,897.45,0.000989646,208.758,""
117981,20,0.00419661,900.033,0.000976182,209.359,""
118414,20,0.00415663,901.841,0.000966883,209.779,""
118710,20,0.00412973,903.069,0.000960626,210.065,""
119068,20,0.00409883,904.543,0.000953439,210.408,""
119518,20,0.00405944,906.378,0.000944276,210.835,""
119824,20,0.00403493,907.616,0.000938574,211.122,""
120147,20,0.00400719,908.913,0.000932121,211.424,""
120515,20,0.0039773,910.385,0.000925169,211.767,""
120815,20,0.00395303,911.575,0.000919524,212.043,""
121308,20,0.00391407,913.511,0.000910462,212.494,""
121676,20,0.00388541,914.948,0.000903793,212.828,""
121985,20,0.0038625,916.145,0.000898465,213.107,""
122488,20,0.00382574,918.077,0.000889913,213.556,""
122855,20,0.00379902,919.477,0.000883698,213.882,""
123336,20,0.00376467,921.296,0.000875708,214.305,""
123754,20,0.00373601,922.863,0.000869041,214.669,""
124343,20,0.00369528,925.054,0.000859567,215.179,""
125113,20,0.00364495,927.88,0.000847861,215.836,""
125413,20,0.00362674,928.968,0.000843625,216.089,""
126017,20,0.00358813,931.148,0.000834643,216.596,""
126677,20,0.00354816,933.503,0.000825345,217.144,""
127401,20,0.00350499,936.057,0.000815303,217.738,""
127905,20,0.00347617,937.814,0.000808599,218.147,""
128390,20,0.00344874,939.493,0.000802218,218.538,""
128798,20,0.00342527,940.898,0.00079676,218.864,""
129332,20,0.00339688,942.717,0.000790157,219.287,""
129827,20,0.00336999,944.392,0.000783901,219.677,""
130413,20,0.00333918,946.359,0.000776734,220.135,""
130976,20,0.00331094,948.23,0.000770166,220.57,""
131311,20,0.00329465,949.338,0.000766376,220.828,""
131617,20,0.00327965,950.344,0.000762886,221.062,""
132066,20,0.00325763,951.811,0.000757765,221.403,""
132334,20,0.0032439,952.681,0.000754572,221.605,""
132993,20,0.00321372,954.809,0.00074755,222.1,""
133546,20,0.00318777,956.58,0.000741514,222.512,""
133867,20,0.00317283,957.599,0.000738039,222.749,""
134477,20,0.00314648,959.528,0.00073191,223.198,""
134751,20,0.00313389,960.387,0.00072898,223.398,""
135135,20,0.00311755,961.589,0.000725181,223.677,""
135421,20,0.00310461,962.477,0.00072217,223.884,""
136252,20,0.00306986,965.043,0.000714087,224.481,""
136820,20,0.0030461,966.779,0.00070856,224.885,""
137203,20,0.00303162,967.943,0.000705193,225.155,""
137831,20,0.00300614,969.84,0.000699266,225.597,""
138926,20,0.00296333,973.108,0.000689307,226.357,""
139305,20,0.00294907,974.228,0.00068599,226.617,""
140177,20,0.0029168,976.787,0.000678484,227.212,""
140555,20,0.00290279,977.885,0.000675224,227.468,""
141598,20,0.00286566,980.895,0.000666588,228.168,""
142117,20,0.00284792,982.377,0.000662462,228.513,""
142368,20,0.00283997,983.092,0.000660612,228.679,""
142748,20,0.00282645,984.168,0.000657467,228.929,""
143356,20,0.00280578,985.879,0.000652658,229.327,""
143733,20,0.0027935,986.935,0.000649802,229.573,""
144020,20,0.00278434,987.735,0.000647671,229.759,""
144656,20,0.00276375,989.499,0.000642883,230.17,""
145058,20,0.00275137,990.609,0.000640002,230.428,""
145624,20,0.00273317,992.162,0.000635768,230.789,""
146024,20,0.0027203,993.25,0.000632776,231.042,""
146694,20,0.00270004,995.067,0.000628063,231.465,""
147242,20,0.00268439,996.543,0.000624421,231.808,""
147638,20,0.00267215,997.602,0.000621574,232.054,""
147941,20,0.00266392,998.411,0.000619661,232.243,""
148597,20,0.00264476,1000.15,0.000615203,232.648,""
149035,20,0.00263201,1001.31,0.000612237,232.916,""
149519,20,0.00261844,1002.58,0.00060908,233.212,""
149926,20,0.00260667,1003.64,0.000606344,233.459,""
150669,20,0.00258722,1005.57,0.000601819,233.908,""
150934,20,0.00257936,1006.26,0.00059999,234.068,""
151319,20,0.00256945,1007.25,0.000597686,234.298,""
151617,20,0.00256134,1008.01,0.0005958,234.476,""
152040,20,0.00255008,1009.09,0.000593179,234.727,""
152655,20,0.00253384,1010.66,0.000589403,235.091,""
153143,20,0.0025209,1011.89,0.000586392,235.378,""
153643,20,0.00250727,1013.14,0.000583223,235.67,""
154265,20,0.00249279,1014.7,0.000579853,236.032,""
154657,20,0.00248246,1015.68,0.00057745,236.259,""
155089,20,0.00247125,1016.75,0.000574842,236.507,""
155638,20,0.0024581,1018.1,0.000571784,236.822,""
155997,20,0.00244882,1018.98,0.000569626,237.027,""
156502,20,0.00243681,1020.21,0.000566832,237.314,""
156903,20,0.00242637,1021.19,0.000564404,237.541,""
157352,20,0.0024163,1022.28,0.000562061,237.794,""
158628,20,0.00238585,1025.34,0.000554978,238.507,""
159098,20,0.00237528,1026.46,0.00055252,238.767,""
159410,20,0.00236841,1027.2,0.000550921,238.939,""
159917,20,0.00235722,1028.4,0.000548318,239.217,""
160401,20,0.00234607,1029.53,0.000545724,239.482,""
160744,20,0.00233889,1030.34,0.000544054,239.669,""
161081,20,0.00233061,1031.13,0.000542128,239.852,""
161693,20,0.00231857,1032.55,0.000539327,240.183,""
162122,20,0.00230865,1033.54,0.000537019,240.414,""
162587,20,0.00229955,1034.61,0.000534904,240.663,""
163032,20,0.00228995,1035.63,0.000532671,240.9,""
163372,20,0.00228251,1036.41,0.00053094,241.082,""
163956,20,0.00227063,1037.74,0.000528177,241.391,""
164494,20,0.00225884,1038.96,0.000525433,241.674,""
165008,20,0.00224869,1040.12,0.000523073,241.944,""
165370,20,0.0022407,1040.93,0.000521215,242.132,""
165723,20,0.00223411,1041.72,0.000519682,242.316,""
166264,20,0.00222348,1042.92,0.000517209,242.597,""
166638,20,0.00221609,1043.75,0.00051549,242.79,""
166876,20,0.00221117,1044.28,0.000514344,242.912,""
167421,20,0.00220045,1045.48,0.00051185,243.192,""
167925,20,0.00219126,1046.59,0.000509714,243.45,""
168286,20,0.00218428,1047.38,0.00050809,243.633,""
168703,20,0.00217625,1048.29,0.000506223,243.845,""
169197,20,0.00216732,1049.36,0.000504144,244.094,""
169792,20,0.00215566,1050.65,0.000501433,244.394,""
170373,20,0.00214461,1051.9,0.000498862,244.684,""
171050,20,0.00213308,1053.34,0.000496181,245.021,""
171380,20,0.00212635,1054.05,0.000494616,245.184,""
171690,20,0.00212167,1054.71,0.000493526,245.337,""
172150,20,0.00211304,1055.68,0.000491519,245.564,""
172568,20,0.0021056,1056.56,0.000489787,245.769,""
173227,20,0.00209411,1057.95,0.000487115,246.091,""
173970,20,0.00208049,1059.5,0.000483947,246.452,""
174510,20,0.00207179,1060.62,0.000481923,246.713,""
174906,20,0.00206425,1061.44,0.00048017,246.903,""
175507,20,0.00205534,1062.67,0.000478097,247.191,""
175965,20,0.00204685,1063.61,0.000476122,247.41,""
176968,20,0.00203019,1065.66,0.000472247,247.885,""
177417,20,0.00202312,1066.57,0.000470602,248.097,""
177822,20,0.00201557,1067.39,0.000468846,248.287,""
178732,20,0.00200264,1069.22,0.000465839,248.713,""
179165,20,0.00199489,1070.08,0.000464036,248.914,""
179464,20,0.00199094,1070.68,0.000463117,249.052,""
179904,20,0.00198342,1071.55,0.000461367,249.256,""
180256,20,0.00197781,1072.25,0.000460063,249.418,""
180624,20,0.00197266,1072.98,0.000458865,249.587,""
181122,20,0.00196588,1073.96,0.000457288,249.815,""
181550,20,0.00195964,1074.79,0.000455835,250.01,""
181982,20,0.00195332,1075.64,0.000454365,250.207,""
182630,20,0.00194308,1076.9,0.000451984,250.501,""
183075,20,0.00193643,1077.77,0.000450436,250.702,""
183389,20,0.00193122,1078.37,0.000449225,250.843,""
183780,20,0.0019257,1079.13,0.000447942,251.018,""
184495,20,0.00191605,1080.5,0.000445698,251.338,""
185153,20,0.00190664,1081.76,0.000443508,251.63,""
185705,20,0.00189817,1082.81,0.000441539,251.874,""
186036,20,0.00189438,1083.44,0.000440657,252.02,""
186452,20,0.0018886,1084.22,0.000439311,252.203,""
186799,20,0.00188388,1084.88,0.000438213,252.356,""
187334,20,0.00187672,1085.88,0.000436547,252.59,""
187781,20,0.00187092,1086.72,0.000435199,252.785,""
188037,20,0.00186722,1087.2,0.000434338,252.896,""
188346,20,0.00186365,1087.78,0.000433508,253.03,""
188863,20,0.00185679,1088.74,0.000431912,253.254,""
189420,20,0.0018493,1089.77,0.000430169,253.494,""
189886,20,0.00184273,1090.63,0.000428641,253.694,""
190491,20,0.00183453,1091.74,0.000426733,253.953,""
191395,20,0.001824,1093.4,0.000424285,254.337,""
191926,20,0.00181615,1094.36,0.000422458,254.562,""
192377,20,0.00181067,1095.18,0.000421184,254.753,""
192884,20,0.00180518,1096.1,0.000419907,254.965,""
193455,20,0.00179706,1097.12,0.000418019,255.205,""
193869,20,0.00179204,1097.87,0.000416851,255.378,""
194480,20,0.00178428,1098.96,0.000415045,255.632,""
195116,20,0.0017776,1100.09,0.00041349,255.895,""
195586,20,0.00177206,1100.93,0.000412203,256.089,""
195980,20,0.00176715,1101.63,0.00041106,256.252,""
196246,20,0.00176402,1102.09,0.000410332,256.361,""
196784,20,0.00175764,1103.04,0.00040885,256.581,""
197086,20,0.00175471,1103.57,0.000408166,256.704,""
197484,20,0.00174996,1104.27,0.000407063,256.867,""
197950,20,0.00174456,1105.08,0.000405805,257.056,""
198329,20,0.00173948,1105.74,0.000404625,257.21,""
198662,20,0.00173785,1106.32,0.000404244,257.344,""
198979,20,0.00173325,1106.87,0.000403176,257.472,""
199475,20,0.00172811,1107.73,0.000401981,257.672,""
199817,20,0.00172479,1108.32,0.000401208,257.81,""
200216,20,0.00171959,1109.01,0.000399998,257.969,""
200700,20,0.00171472,1109.84,0.000398864,258.162,""
201250,20,0.0017097,1110.78,0.000397697,258.382,""
201630,20,0.00170348,1111.43,0.000396251,258.532,""
202138,20,0.00169916,1112.3,0.000395245,258.734,""
202854,20,0.00169155,1113.51,0.000393474,259.016,""
203492,20,0.00168439,1114.59,0.000391809,259.267,""
203824,20,0.00168106,1115.15,0.000391034,259.396,""
204117,20,0.00167724,1115.64,0.000390147,259.511,""
204590,20,0.00167218,1116.43,0.00038897,259.695,""
205081,20,0.00166783,1117.25,0.000387957,259.886,""
205474,20,0.0016627,1117.9,0.000386764,260.038,""
205902,20,0.00165967,1118.62,0.00038606,260.204,""
206604,20,0.00165209,1119.78,0.000384296,260.474,""
207046,20,0.00164729,1120.51,0.000383179,260.644,""
207400,20,0.00164315,1121.09,0.000382217,260.779,""
207887,20,0.00163866,1121.89,0.000381172,260.965,""
208492,20,0.00163259,1122.88,0.000379762,261.195,""
209006,20,0.00162727,1123.71,0.000378524,261.39,""
209528,20,0.00162254,1124.56,0.000377422,261.587,""
210467,20,0.00161385,1126.08,0.000375402,261.94,""
211094,20,0.00160746,1127.09,0.000373914,262.176,""
211461,20,0.0016035,1127.68,0.000372993,262.313,""
211778,20,0.00160101,1128.19,0.000372413,262.43,""
212260,20,0.00159583,1128.96,0.00037121,262.61,""
212645,20,0.00159257,1129.57,0.000370452,262.753,""
213152,20,0.00158756,1130.38,0.000369287,262.94,""
213851,20,0.00158149,1131.49,0.000367875,263.198,""
214161,20,0.00157935,1131.98,0.000367376,263.312,""
214440,20,0.00157607,1132.42,0.000366614,263.414,""
214874,20,0.00157269,1133.1,0.000365826,263.573,""
215767,20,0.00156483,1134.5,0.000363999,263.899,""
216025,20,0.00156158,1134.91,0.000363242,263.993,""
216490,20,0.00155812,1135.63,0.000362439,264.162,""
216814,20,0.0015547,1136.13,0.000361641,264.279,""
217382,20,0.00155055,1137.02,0.000360678,264.484,""
217743,20,0.00154655,1137.57,0.000359747,264.614,""
218159,20,0.00154293,1138.22,0.000358905,264.763,""
218675,20,0.00153885,1139.01,0.000357956,264.948,""
219300,20,0.00153262,1139.97,0.000356505,265.172,""
219850,20,0.00152831,1140.82,0.000355504,265.368,""
220173,20,0.00152507,1141.31,0.000354751,265.482,""
220456,20,0.00152356,1141.74,0.000354398,265.582,""
220826,20,0.00152042,1142.3,0.000353669,265.713,""
221289,20,0.00151633,1143.01,0.000352718,265.877,""
221851,20,0.00151177,1143.86,0.000351656,266.075,""
222581,20,0.00150587,1144.96,0.000350283,266.331,""
222939,20,0.0015022,1145.5,0.000349431,266.456,""
223340,20,0.00149962,1146.1,0.000348831,266.596,""
223698,20,0.00149585,1146.63,0.000347952,266.721,""
224262,20,0.00149176,1147.48,0.000347001,266.917,""
225201,20,0.0014841,1148.87,0.00034522,267.242,""
226178,20,0.00147632,1150.32,0.000343409,267.579,""
226618,20,0.00147273,1150.97,0.000342574,267.729,""
227299,20,0.00146775,1151.97,0.000341416,267.962,""
227886,20,0.00146359,1152.83,0.000340449,268.162,""
228722,20,0.00145661,1154.05,0.000338825,268.446,""
229085,20,0.00145475,1154.58,0.000338393,268.569,""
229932,20,0.0014471,1155.81,0.000336614,268.855,""
230666,20,0.00144232,1156.87,0.000335501,269.102,""
231176,20,0.00143893,1157.6,0.000334713,269.273,""
231516,20,0.00143573,1158.09,0.000333969,269.387,""
231839,20,0.00143342,1158.56,0.000333431,269.494,""
232475,20,0.00142848,1159.47,0.000332282,269.706,""
233014,20,0.00142569,1160.23,0.000331633,269.885,""
233529,20,0.00142072,1160.97,0.000330477,270.055,""
234181,20,0.00141703,1161.89,0.000329618,270.27,""
234705,20,0.00141244,1162.63,0.000328551,270.443,""
235005,20,0.00141106,1163.06,0.00032823,270.542,""
235450,20,0.0014077,1163.68,0.000327448,270.687,""
235932,20,0.00140488,1164.36,0.000326792,270.845,""
236622,20,0.00139921,1165.33,0.000325474,271.07,""
237265,20,0.001395,1166.23,0.000324494,271.279,""
237798,20,0.00139175,1166.97,0.000323738,271.452,""
238213,20,0.00138884,1167.55,0.000323061,271.586,""
239189,20,0.00138251,1168.9,0.000321588,271.901,""
239616,20,0.00137899,1169.49,0.000320769,272.038,""
240196,20,0.00137566,1170.29,0.000319996,272.223,""
240959,20,0.00136937,1171.34,0.000318532,272.467,""
241386,20,0.00136768,1171.92,0.000318139,272.603,""
242019,20,0.00136266,1172.79,0.000316971,272.804,""
242553,20,0.00135898,1173.51,0.000316115,272.973,""
243126,20,0.00135577,1174.29,0.000315368,273.154,""
243469,20,0.00135307,1174.75,0.000314741,273.262,""
243907,20,0.00135065,1175.35,0.000314177,273.4,""
244252,20,0.00134781,1175.81,0.000313516,273.508,""
244811,20,0.00134441,1176.56,0.000312727,273.683,""
245247,20,0.0013419,1177.15,0.000312142,273.819,""
245563,20,0.001339,1177.57,0.000311468,273.918,""
245989,20,0.00133672,1178.14,0.000310937,274.051,""
246647,20,0.00133267,1179.02,0.000309995,274.255,""
247229,20,0.00132917,1179.8,0.000309182,274.435,""
247431,20,0.00132752,1180.06,0.000308797,274.497,""
248191,20,0.001323,1181.07,0.000307747,274.731,""
248468,20,0.00132101,1181.44,0.000307284,274.817,""
249268,20,0.00131567,1182.49,0.000306042,275.062,""
249805,20,0.00131325,1183.2,0.000305479,275.226,""
251597,20,0.00130185,1185.54,0.000302827,275.771,""
252573,20,0.00129537,1186.81,0.000301318,276.066,""
252984,20,0.00129342,1187.34,0.000300866,276.19,""
253403,20,0.00129068,1187.88,0.000300229,276.316,""
253915,20,0.00128676,1188.54,0.000299315,276.469,""
254321,20,0.00128481,1189.06,0.000298861,276.591,""
254839,20,0.0012819,1189.73,0.000298186,276.745,""
255414,20,0.00127748,1190.46,0.000297158,276.916,""
257070,20,0.00126852,1192.57,0.000295073,277.407,""
257616,20,0.00126519,1193.26,0.000294299,277.568,""
258048,20,0.00126205,1193.81,0.000293569,277.695,""
258984,20,0.00125783,1194.99,0.000292586,277.969,""
259586,20,0.00125397,1195.74,0.000291689,278.145,""
260340,20,0.00124983,1196.69,0.000290727,278.365,""
260730,20,0.00124806,1197.18,0.000290314,278.478,""
261285,20,0.00124454,1197.87,0.000289495,278.639,""
261674,20,0.00124283,1198.35,0.000289098,278.751,""
262695,20,0.00123614,1199.62,0.000287541,279.045,""
263175,20,0.00123392,1200.21,0.000287026,279.184,""
263921,20,0.0012298,1201.13,0.000286067,279.397,""
264698,20,0.00122527,1202.08,0.000285012,279.619,""
265473,20,0.00122083,1203.03,0.00028398,279.839,""
265815,20,0.00121855,1203.45,0.00028345,279.937,""
266518,20,0.00121545,1204.3,0.000282728,280.136,""
267238,20,0.00121148,1205.18,0.000281805,280.339,""
267949,20,0.00120734,1206.04,0.000280841,280.539,""
268652,20,0.00120328,1206.88,0.000279897,280.736,""
269040,20,0.00120109,1207.35,0.000279389,280.844,""
270399,20,0.00119435,1208.98,0.000277821,281.223,""
270997,20,0.00119058,1209.69,0.000276943,281.389,""
271359,20,0.00118952,1210.12,0.000276698,281.489,""
271946,20,0.00118602,1210.82,0.000275883,281.651,""
272413,20,0.0011839,1211.37,0.000275389,281.78,""
273185,20,0.00118006,1212.29,0.000274497,281.992,""
274053,20,0.0011755,1213.31,0.000273435,282.23,""
274670,20,0.00117318,1214.03,0.000272896,282.399,""
275283,20,0.00116955,1214.75,0.000272051,282.566,""
276196,20,0.00116563,1215.82,0.00027114,282.814,""
276930,20,0.00116171,1216.67,0.000270228,283.012,""
277234,20,0.00115941,1217.02,0.000269693,283.094,""
277506,20,0.00115845,1217.34,0.00026947,283.168,""
278133,20,0.00115467,1218.06,0.000268591,283.337,""
278580,20,0.00115306,1218.58,0.000268216,283.456,""
279032,20,0.00115066,1219.1,0.000267658,283.578,""
279753,20,0.00114764,1219.93,0.000266956,283.77,""
280292,20,0.00114488,1220.55,0.000266313,283.914,""
280650,20,0.00114255,1220.96,0.000265771,284.009,""
281597,20,0.00113806,1222.04,0.000264726,284.26,""
282086,20,0.00113548,1222.59,0.000264127,284.39,""
282594,20,0.00113349,1223.17,0.000263664,284.524,""
282988,20,0.00113186,1223.61,0.000263285,284.628,""
283236,20,0.00113046,1223.9,0.00026296,284.693,""
283740,20,0.00112763,1224.46,0.000262301,284.825,""
284749,20,0.00112299,1225.6,0.000261221,285.09,""
285401,20,0.00112042,1226.33,0.000260623,285.26,""
286063,20,0.00111682,1227.07,0.000259787,285.432,""
286557,20,0.00111436,1227.62,0.000259215,285.56,""
287304,20,0.00111148,1228.46,0.000258543,285.754,""
287774,20,0.00110854,1228.98,0.000257859,285.875,""
288488,20,0.00110634,1229.77,0.000257347,286.059,""
288777,20,0.00110392,1230.09,0.000256786,286.133,""
289437,20,0.0011017,1230.82,0.000256269,286.303,""
290023,20,0.00109731,1231.46,0.000255247,286.453,""
290586,20,0.00109546,1232.08,0.000254819,286.596,""
291057,20,0.00109379,1232.59,0.000254428,286.716,""
291603,20,0.00109047,1233.19,0.000253656,286.855,""
292185,20,0.00108821,1233.82,0.000253132,287.002,""
292668,20,0.0010858,1234.35,0.00025257,287.124,""
293432,20,0.00108236,1235.18,0.00025177,287.317,""
293773,20,0.00107998,1235.54,0.000251217,287.403,""
294549,20,0.00107712,1236.38,0.00025055,287.598,""
295104,20,0.0010746,1236.98,0.000249966,287.736,""
295767,20,0.00107181,1237.69,0.000249316,287.902,""
296363,20,0.00106953,1238.33,0.000248786,288.05,""
297478,20,0.00106466,1239.52,0.000247652,288.327,""
297849,20,0.00106258,1239.91,0.00024717,288.419,""
298316,20,0.00106109,1240.41,0.000246823,288.534,""
299367,20,0.00105535,1241.52,0.000245488,288.793,""
299843,20,0.00105298,1242.02,0.000244936,288.91,""
300624,20,0.00104945,1242.84,0.000244115,289.101,""
301150,20,0.00104811,1243.4,0.000243803,289.229,""
301807,20,0.00104454,1244.08,0.000242972,289.389,""
302303,20,0.0010425,1244.6,0.000242498,289.509,""
302559,20,0.00104079,1244.87,0.0002421,289.571,""
303181,20,0.00103895,1245.51,0.000241672,289.722,""
303553,20,0.00103692,1245.9,0.0002412,289.811,""
304668,20,0.00103109,1247.05,0.000239844,290.08,""
304993,20,0.00103079,1247.39,0.000239774,290.157,""
305941,20,0.00102612,1248.36,0.000238688,290.384,""
306547,20,0.00102346,1248.98,0.00023807,290.529,""
307028,20,0.00102188,1249.48,0.000237702,290.643,""
307753,20,0.00101894,1250.21,0.000237017,290.815,""
308240,20,0.00101676,1250.71,0.000236512,290.93,""
309095,20,0.00101388,1251.58,0.00023584,291.132,""
309690,20,0.00101045,1252.18,0.000235044,291.272,""
310048,20,0.00100809,1252.54,0.000234494,291.356,""
310817,20,0.00100544,1253.31,0.000233878,291.536,""
311130,20,0.00100476,1253.63,0.000233719,291.609,""
311605,20,0.0010023,1254.11,0.000233147,291.72,""
312012,20,0.00100072,1254.51,0.00023278,291.815,""
312398,20,0.000998967,1254.9,0.000232372,291.905,""
312957,20,0.00099714,1255.46,0.000231947,292.035,""
313465,20,0.000994004,1255.96,0.000231218,292.152,""
313763,20,0.00099216,1256.26,0.000230789,292.221,""
314184,20,0.000991658,1256.68,0.000230672,292.318,""
314558,20,0.000990454,1257.05,0.000230392,292.405,""
315222,20,0.000987,1257.7,0.000229588,292.557,""
315602,20,0.000985229,1258.08,0.000229176,292.644,""
316415,20,0.000982197,1258.88,0.000228471,292.83,""
316822,20,0.000980494,1259.28,0.000228075,292.923,""
317418,20,0.000978003,1259.86,0.000227495,293.059,""
318179,20,0.000975658,1260.6,0.00022695,293.232,""
318614,20,0.000972528,1261.03,0.000226222,293.331,""
319665,20,0.000969214,1262.05,0.000225451,293.568,""
320023,20,0.000967216,1262.4,0.000224986,293.649,""
320828,20,0.000964307,1263.17,0.00022431,293.83,""
322139,20,0.00095871,1264.43,0.000223008,294.123,""
322935,20,0.000955824,1265.2,0.000222336,294.3,""
323408,20,0.000953071,1265.65,0.000221696,294.405,""
323958,20,0.000950538,1266.17,0.000221107,294.527,""
324282,20,0.000949889,1266.48,0.000220956,294.598,""
325041,20,0.000946425,1267.2,0.00022015,294.766,""
325597,20,0.000944671,1267.72,0.000219742,294.888,""
325893,20,0.000943943,1268,0.000219573,294.953,""
326419,20,0.000941574,1268.5,0.000219022,295.068,""
327170,20,0.000939154,1269.21,0.000218459,295.233,""
327545,20,0.000936882,1269.56,0.00021793,295.314,""
328108,20,0.000935429,1270.08,0.000217592,295.437,""
328445,20,0.000933981,1270.4,0.000217255,295.51,""
329787,20,0.000928801,1271.65,0.00021605,295.801,""
330646,20,0.000924581,1272.44,0.000215069,295.986,""
331241,20,0.000921801,1272.99,0.000214422,296.114,""
331856,20,0.000920261,1273.56,0.000214064,296.245,""
332614,20,0.000916857,1274.26,0.000213272,296.408,""
333303,20,0.000915336,1274.89,0.000212918,296.554,""
333681,20,0.000912828,1275.23,0.000212335,296.635,""
334301,20,0.000910105,1275.8,0.000211702,296.766,""
334848,20,0.000907998,1276.29,0.000211212,296.882,""
335257,20,0.000906875,1276.67,0.00021095,296.968,""
336321,20,0.00090261,1277.63,0.000209958,297.192,""
336801,20,0.000899914,1278.06,0.000209331,297.293,""
337459,20,0.000897121,1278.65,0.000208681,297.43,""
337807,20,0.000896615,1278.96,0.000208564,297.503,""
338214,20,0.000894585,1279.33,0.000208091,297.588,""
338773,20,0.000893597,1279.83,0.000207862,297.704,""
339184,20,0.000891207,1280.2,0.000207306,297.789,""
340081,20,0.000887537,1280.99,0.000206452,297.975,""
340644,20,0.000884926,1281.49,0.000205845,298.091,""
340974,20,0.000883771,1281.78,0.000205576,298.159,""
341536,20,0.000881895,1282.28,0.00020514,298.274,""
342411,20,0.000878726,1283.05,0.000204402,298.453,""
343163,20,0.000875169,1283.71,0.000203575,298.607,""
343590,20,0.000873702,1284.08,0.000203234,298.693,""
343995,20,0.000871929,1284.44,0.000202821,298.776,""
344248,20,0.000871689,1284.66,0.000202765,298.827,""
344984,20,0.000867669,1285.3,0.00020183,298.976,""
345928,20,0.000864669,1286.11,0.000201132,299.166,""
346466,20,0.000862288,1286.58,0.000200579,299.274,""
347100,20,0.00086075,1287.12,0.000200221,299.401,""
347796,20,0.000857709,1287.72,0.000199514,299.54,""
348606,20,0.000855467,1288.42,0.000198992,299.702,""
349245,20,0.000853649,1288.96,0.000198569,299.829,""
349911,20,0.000850846,1289.53,0.000197917,299.961,""
350571,20,0.000848387,1290.09,0.000197345,300.091,""
351027,20,0.000847761,1290.48,0.0001972,300.181,""
351773,20,0.000844342,1291.11,0.000196404,300.328,""
352130,20,0.000842879,1291.41,0.000196064,300.398,""
352611,20,0.000841943,1291.82,0.000195846,300.492,""
352832,20,0.000840942,1292,0.000195613,300.535,""
353110,20,0.000840483,1292.24,0.000195507,300.59,""
353840,20,0.000837863,1292.85,0.000194897,300.732,""
354243,20,0.000835777,1293.19,0.000194412,300.811,""
355046,20,0.000833412,1293.86,0.000193862,300.967,""
355796,20,0.000830728,1294.48,0.000193237,301.112,""
356483,20,0.000829017,1295.05,0.000192839,301.245,""
356830,20,0.000828211,1295.34,0.000192652,301.311,""
357934,20,0.000824176,1296.25,0.000191713,301.523,""
359397,20,0.000818196,1297.45,0.000190322,301.803,""
359695,20,0.000817127,1297.69,0.000190074,301.859,""
360436,20,0.000815834,1298.3,0.000189773,302,""
360924,20,0.000812824,1298.7,0.000189073,302.093,""
361754,20,0.000810301,1299.37,0.000188486,302.249,""
362341,20,0.000808207,1299.85,0.000187999,302.36,""
362858,20,0.0008069,1300.26,0.000187695,302.457,""
363191,20,0.000805285,1300.53,0.000187319,302.52,""
363649,20,0.000804084,1300.9,0.00018704,302.605,""
364238,20,0.000801435,1301.37,0.000186423,302.715,""
364972,20,0.00079919,1301.96,0.000185901,302.852,""
365348,20,0.000798498,1302.26,0.00018574,302.922,""
366290,20,0.000795386,1303.01,0.000185017,303.096,""
366606,20,0.000794132,1303.26,0.000184725,303.155,""
367518,20,0.000791807,1303.99,0.000184184,303.323,""
368012,20,0.0007897,1304.38,0.000183694,303.414,""
368518,20,0.000788401,1304.78,0.000183392,303.507,""
369103,20,0.000786569,1305.24,0.000182966,303.614,""
369375,20,0.000785384,1305.45,0.00018269,303.664,""
369724,20,0.000784574,1305.72,0.000182501,303.727,""
370429,20,0.0007824,1306.28,0.000181996,303.856,""
370729,20,0.000781168,1306.51,0.000181709,303.91,""
371209,20,0.000780183,1306.89,0.00018148,303.998,""
371680,20,0.000777504,1307.25,0.000180857,304.083,""
372416,20,0.000776227,1307.82,0.00018056,304.216,""
372913,20,0.000774982,1308.21,0.00018027,304.305,""
373622,20,0.000771427,1308.76,0.000179443,304.433,""
373884,20,0.000771005,1308.96,0.000179345,304.48,""
374316,20,0.000770204,1309.29,0.000179159,304.558,""
374855,20,0.000768198,1309.71,0.000178692,304.654,""
376075,20,0.000764597,1310.64,0.000177855,304.871,""
376895,20,0.000762459,1311.27,0.000177357,305.017,""
377294,20,0.000760843,1311.57,0.000176981,305.088,""
378311,20,0.000757708,1312.34,0.000176252,305.267,""
378859,20,0.000755973,1312.76,0.000175849,305.364,""
379242,20,0.000754702,1313.05,0.000175553,305.431,""
379719,20,0.000753047,1313.41,0.000175168,305.515,""
380100,20,0.000750609,1313.69,0.000174601,305.581,""
380597,20,0.00074984,1314.07,0.000174422,305.668,""
381195,20,0.000748204,1314.51,0.000174041,305.772,""
381655,20,0.000746398,1314.86,0.000173621,305.852,""
381986,20,0.00074483,1315.11,0.000173257,305.91,""
382310,20,0.000744239,1315.35,0.000173119,305.966,""
383065,20,0.000741199,1315.91,0.000172412,306.096,""
383960,20,0.000738317,1316.57,0.000171741,306.25,""
384414,20,0.000736785,1316.9,0.000171385,306.328,""
384932,20,0.000735944,1317.29,0.00017119,306.417,""
385825,20,0.000732894,1317.94,0.00017048,306.569,""
386303,20,0.000731889,1318.29,0.000170246,306.651,""
386974,20,0.000729219,1318.78,0.000169625,306.765,""
387487,20,0.000728102,1319.16,0.000169365,306.852,""
388131,20,0.000725374,1319.62,0.000168731,306.961,""
388662,20,0.000723655,1320.01,0.000168331,307.05,""
389383,20,0.000722206,1320.53,0.000167994,307.171,""
389932,20,0.000720205,1320.93,0.000167529,307.263,""
390579,20,0.000718636,1321.39,0.000167164,307.372,""
391075,20,0.000716857,1321.75,0.00016675,307.455,""
391547,20,0.000715651,1322.08,0.000166469,307.533,""
392045,20,0.000714553,1322.44,0.000166214,307.616,""
392489,20,0.000712314,1322.76,0.000165693,307.69,""
392834,20,0.000712143,1323,0.000165653,307.747,""
393499,20,0.000709468,1323.48,0.000165031,307.857,""
393904,20,0.000709143,1323.76,0.000164955,307.924,""
394410,20,0.000706949,1324.12,0.000164445,308.007,""
395062,20,0.000705347,1324.58,0.000164072,308.114,""
395444,20,0.000704521,1324.85,0.00016388,308.177,""
396220,20,0.000702057,1325.4,0.000163307,308.304,""
396930,20,0.000699611,1325.89,0.000162738,308.419,""
397213,20,0.000699085,1326.09,0.000162616,308.465,""
397644,20,0.000697459,1326.39,0.000162238,308.535,""
398350,20,0.000695877,1326.89,0.000161869,308.65,""
398901,20,0.000693744,1327.27,0.000161373,308.739,""
399456,20,0.000692748,1327.65,0.000161142,308.828,""
399840,20,0.000690952,1327.92,0.000160724,308.89,""
400407,20,0.000690065,1328.31,0.000160517,308.981,""
400948,20,0.000687952,1328.68,0.000160026,309.068,""
401312,20,0.000686804,1328.93,0.000159759,309.126,""
401922,20,0.000685529,1329.35,0.000159462,309.224,""
402590,20,0.000683206,1329.81,0.000158922,309.33,""
402970,20,0.000682978,1330.07,0.000158869,309.391,""
403242,20,0.00068129,1330.26,0.000158476,309.434,""
403446,20,0.000681692,1330.39,0.00015857,309.466,""
403829,20,0.000679571,1330.65,0.000158077,309.527,""
404515,20,0.00067918,1331.12,0.000157986,309.635,""
405198,20,0.00067671,1331.58,0.000157411,309.743,""
405486,20,0.000676645,1331.78,0.000157396,309.788,""
405887,20,0.000674534,1332.05,0.000156905,309.851,""
406312,20,0.000674088,1332.34,0.000156801,309.918,""
406933,20,0.000672907,1332.75,0.000156526,310.015,""
407135,20,0.000671451,1332.89,0.000156188,310.047,""
407575,20,0.000671271,1333.19,0.000156146,310.115,""
408117,20,0.000669313,1333.55,0.00015569,310.2,""
408480,20,0.000667657,1333.79,0.000155305,310.256,""
408960,20,0.000667181,1334.11,0.000155194,310.331,""
409585,20,0.000665427,1334.53,0.000154787,310.428,""
409979,20,0.000663973,1334.79,0.000154448,310.488,""
410249,20,0.000663544,1334.97,0.000154348,310.53,""
410618,20,0.000662109,1335.21,0.000154015,310.587,""
411590,20,0.000660254,1335.86,0.000153583,310.736,""
411874,20,0.000658644,1336.04,0.000153209,310.78,""
412093,20,0.00065832,1336.19,0.000153133,310.813,""
412416,20,0.000657938,1336.4,0.000153045,310.863,""
412668,20,0.000656873,1336.57,0.000152797,310.901,""
413111,20,0.000656196,1336.86,0.000152639,310.969,""
413569,20,0.000653864,1337.16,0.000152097,311.039,""
413867,20,0.00065488,1337.35,0.000152333,311.084,""
414185,20,0.000653039,1337.56,0.000151905,311.133,""
414551,20,0.000651018,1337.8,0.000151435,311.188,""
414889,20,0.000652353,1338.02,0.000151745,311.239,""
415259,20,0.000650621,1338.26,0.000151342,311.295,""
415717,20,0.000650093,1338.56,0.00015122,311.365,""
415932,20,0.000648338,1338.7,0.000150811,311.397,""
416132,20,0.000648704,1338.83,0.000150896,311.427,""
416432,20,0.000647098,1339.02,0.000150523,311.472,""
416730,20,0.00064532,1339.21,0.000150109,311.517,""
417129,20,0.000645267,1339.47,0.000150097,311.577,""
417403,20,0.000643796,1339.65,0.000149755,311.618,""
417909,20,0.000642203,1339.97,0.000149384,311.694,""
418234,20,0.000641954,1340.18,0.000149326,311.743,""
418503,20,0.000641167,1340.35,0.000149143,311.783,""
418510,20,0.000641192,1340.36,0.000149149,311.784,""
418517,20,0.000641218,1340.36,0.000149155,311.785,""
418524,20,0.000641243,1340.37,0.000149161,311.786,""
418531,20,0.000641268,1340.37,0.000149167,311.787,""
418538,20,0.000641294,1340.38,0.000149173,311.788,""
418545,20,0.000641319,1340.38,0.000149179,311.789,""
418552,20,0.000641344,1340.39,0.000149185,311.79,""
418555,20,0.000641355,1340.39,0.000149187,311.79,""
418555,20,NaN,NaN,NaN,NaN,"Ampoule removed"
418556,20,NaN,NaN,NaN,NaN,""
418557,20,NaN,NaN,NaN,NaN,""
418558,20,NaN,NaN,NaN,NaN,""
418559,20,NaN,NaN,NaN,NaN,""