File: TAInstCalorimetry/DATA/calorimetry_data_3.csv
"Time","Temperature [AmbientT(Therm3T)]","Temperature [Temperature]","Heat flow [Signal]","Heat [Signal]","Normalized heat flow [Signal]","Normalized heat [Signal]","Time markers"
-2404.38,21.9911,19.9999,NaN,NaN,NaN,NaN,""
-2403.68,21.9909,19.9999,-1.15177e-06,NaN,-2.63623e-07,NaN,""
-2380.88,21.983,20.0002,-8.0567e-07,NaN,-1.84406e-07,NaN,""
-2363.53,21.993,20.0003,-5.42311e-07,NaN,-1.24127e-07,NaN,""
-2344.11,22.0043,20.0002,-4.12699e-07,NaN,-9.44607e-08,NaN,""
-2342.03,22.0054,20.0002,-4.0096e-07,NaN,-9.17739e-08,NaN,""
-2331.14,22.1416,20.0001,-3.39311e-07,NaN,-7.76632e-08,NaN,""
-2314.55,22.0989,20.0001,-2.45395e-07,NaN,-5.61674e-08,NaN,""
-2308.4,22.083,20,-8.91091e-08,NaN,-2.03958e-08,NaN,""
-2302.44,22.0675,20.0001,5.73525e-08,NaN,1.31271e-08,NaN,""
-2261.39,21.9536,20.0002,9.01919e-08,NaN,2.06436e-08,NaN,""
-2251.54,21.9701,20.0002,1.6738e-07,NaN,3.83108e-08,NaN,""
-2241.69,21.9909,20.0001,2.44568e-07,NaN,5.59779e-08,NaN,""
-2226.87,22.0149,20,6.77457e-08,NaN,1.5506e-08,NaN,""
-2209.81,22.0202,20,-1.35727e-07,NaN,-3.1066e-08,NaN,""
-2190.36,22.0225,19.9999,-7.11648e-08,NaN,-1.62886e-08,NaN,""
-2180.31,22.0024,19.9999,-3.78171e-08,NaN,-8.65578e-09,NaN,""
-2170.27,21.9857,19.9999,-4.46935e-09,NaN,-1.02297e-09,NaN,""
-2149.08,21.9892,19.9999,-1.25358e-07,NaN,-2.86927e-08,NaN,""
-2138.38,21.9909,20,-2.47478e-07,NaN,-5.66441e-08,NaN,""
-2128.84,21.9925,20.0003,-5.05535e-07,NaN,-1.1571e-07,NaN,""
-2120.36,21.9939,20.0003,-6.352e-07,NaN,-1.45388e-07,NaN,""
-2109.12,21.9957,20.0003,-6.07708e-07,NaN,-1.39096e-07,NaN,""
-2102.7,21.9954,20.0003,-7.65786e-07,NaN,-1.75277e-07,NaN,""
-2096.27,21.9903,20.0003,-9.23864e-07,NaN,-2.11459e-07,NaN,""
-2053.9,21.9569,20.0002,-6.08651e-07,NaN,-1.39311e-07,NaN,""
-2051.2,21.9548,20.0002,-5.49871e-07,NaN,-1.25857e-07,NaN,""
-2040.94,21.9679,20.0002,-3.27166e-07,NaN,-7.48834e-08,NaN,""
-2030.69,21.981,20.0001,-1.0446e-07,NaN,-2.39095e-08,NaN,""
-2007.51,21.9785,20.0001,3.97686e-07,NaN,9.10245e-08,NaN,""
-1966.18,21.974,19.9999,-1.88085e-07,NaN,-4.30498e-08,NaN,""
-1936.58,21.9708,19.9998,-5.34314e-08,NaN,-1.22297e-08,NaN,""
-1906.98,21.9676,20.0002,8.1222e-08,NaN,1.85905e-08,NaN,""
-1886.96,21.9654,20.0002,-2.69103e-07,NaN,-6.15936e-08,NaN,""
-1872.2,21.9638,20,-5.27351e-07,NaN,-1.20703e-07,NaN,""
-1850.75,21.9615,20,-4.85741e-07,NaN,-1.11179e-07,NaN,""
-1831.33,21.9594,20,-2.17998e-07,NaN,-4.98965e-08,NaN,""
-1823.7,21.9585,20,-3.07907e-07,NaN,-7.04753e-08,NaN,""
-1773.34,21.9723,20,-9.01918e-07,NaN,-2.06436e-07,NaN,""
-1758.99,21.9763,19.9999,-1.07109e-06,NaN,-2.45157e-07,NaN,""
-1744.88,21.9801,19.9999,-9.35051e-07,NaN,-2.14019e-07,NaN,""
-1735.3,21.9828,19.9999,-1.10667e-06,NaN,-2.53301e-07,NaN,""
-1727.54,21.9762,19.9998,-1.17585e-06,NaN,-2.69135e-07,NaN,""
-1717.27,21.9675,19.9998,-9.67984e-07,NaN,-2.21557e-07,NaN,""
-1698.07,21.9512,19.9998,-1.23665e-06,NaN,-2.83051e-07,NaN,""
-1677.25,21.942,19.9997,-9.05403e-07,NaN,-2.07234e-07,NaN,""
-1656.44,21.9658,19.9997,-5.74157e-07,NaN,-1.31416e-07,NaN,""
-1644.42,21.9795,19.9996,-7.4179e-07,NaN,-1.69785e-07,NaN,""
-1637.44,21.9727,19.9996,-6.07407e-07,NaN,-1.39027e-07,NaN,""
-1618.3,21.954,19.9999,5.5028e-07,NaN,1.25951e-07,NaN,""
-1603.57,21.9556,20.0001,9.57336e-07,NaN,2.1912e-07,NaN,""
-1580.1,21.9657,20,1.60551e-06,NaN,3.67478e-07,NaN,""
-1578.99,21.9648,20,1.63618e-06,NaN,3.74497e-07,NaN,""
-1562.16,21.9511,20,2.08785e-06,NaN,4.77879e-07,NaN,""
-1550.96,21.942,20,1.94942e-06,NaN,4.46193e-07,NaN,""
-1539.75,21.9329,19.9999,1.81098e-06,NaN,4.14508e-07,NaN,""
-1531.04,21.9263,19.9999,1.81288e-06,NaN,4.14942e-07,NaN,""
-1522.32,21.9288,19.9998,1.81478e-06,NaN,4.15377e-07,NaN,""
-1496.79,21.9362,19.9997,1.46697e-06,NaN,3.35769e-07,NaN,""
-1470.1,21.8818,19.9996,1.10326e-06,NaN,2.5252e-07,NaN,""
-1459.43,21.8777,19.9996,9.33996e-07,NaN,2.13778e-07,NaN,""
-1436.79,21.9094,20,5.74711e-07,NaN,1.31543e-07,NaN,""
-1424.2,21.9035,20,3.74939e-07,NaN,8.5818e-08,NaN,""
-1391.18,21.888,19.9999,-1.49046e-07,NaN,-3.41145e-08,NaN,""
-1381.97,21.8876,19.9998,-3.3732e-07,NaN,-7.72077e-08,NaN,""
-1372.76,21.8966,19.9998,-5.25594e-07,NaN,-1.20301e-07,NaN,""
-1359.88,21.9092,19.9998,-8.65924e-07,NaN,-1.98197e-07,NaN,""
-1346.99,21.9168,19.9998,-1.20625e-06,NaN,-2.76094e-07,NaN,""
-1321.25,21.8942,19.9998,-1.42356e-06,NaN,-3.25832e-07,NaN,""
-1309.91,21.9394,19.9998,-1.51933e-06,NaN,-3.47753e-07,NaN,""
-1281.27,21.9381,19.9998,-1.9654e-06,NaN,-4.49851e-07,NaN,""
-1262.52,21.9373,19.9999,-2.57733e-06,NaN,-5.89913e-07,NaN,""
-1248.44,21.9367,19.9999,-2.72145e-06,NaN,-6.22901e-07,NaN,""
-1235.17,21.9364,19.9998,-2.83493e-06,NaN,-6.48873e-07,NaN,""
-1235,21.9364,19.9998,-2.83636e-06,NaN,-6.49201e-07,NaN,""
-1222.18,21.9375,19.9998,-2.9543e-06,NaN,-6.76195e-07,NaN,""
-1194.73,21.9397,19.9998,-3.98974e-06,NaN,-9.13194e-07,NaN,""
-1167.99,21.9418,19.9998,-4.49328e-06,NaN,-1.02845e-06,NaN,""
-1152.08,21.9431,19.9998,-4.24757e-06,NaN,-9.72206e-07,NaN,""
-1143.58,21.9744,19.9998,-3.98778e-06,NaN,-9.12744e-07,NaN,""
-1131.13,22.0203,19.9998,-3.57955e-06,NaN,-8.19307e-07,NaN,""
-1125.63,22.0143,19.9998,-3.39031e-06,NaN,-7.75991e-07,NaN,""
-1110.78,21.9983,20.0001,-2.46e-06,NaN,-5.63057e-07,NaN,""
-1102.22,21.9894,20.0001,-1.87826e-06,NaN,-4.29906e-07,NaN,""
-1058.18,21.9965,20,1.18426e-06,NaN,2.71059e-07,NaN,""
-1043.01,21.9989,20,1.73125e-06,NaN,3.96258e-07,NaN,""
-1027.84,22.0013,20,2.27825e-06,NaN,5.21457e-07,NaN,""
-1002.78,22.0054,20,3.51728e-06,NaN,8.05053e-07,NaN,""
-989.839,21.9961,20,3.67989e-06,NaN,8.42274e-07,NaN,""
-954.712,21.9711,20.0001,4.03455e-06,NaN,9.2345e-07,NaN,""
-925.5,22.0161,20.0001,3.2224e-06,NaN,7.3756e-07,NaN,""
-924.92,22.0187,20.0001,3.20628e-06,NaN,7.3387e-07,NaN,""
-915.942,22.0335,20,2.95666e-06,NaN,6.76737e-07,NaN,""
-899.374,22.0148,20,2.49605e-06,NaN,5.71309e-07,NaN,""
-875.628,22.0118,19.9999,1.7857e-06,NaN,4.08721e-07,NaN,""
-873.144,22.0115,19.9998,1.71061e-06,NaN,3.91533e-07,NaN,""
-853.577,22.0091,20.0003,1.11909e-06,NaN,2.56143e-07,NaN,""
-851.882,22.0089,20.0003,1.09551e-06,NaN,2.50747e-07,NaN,""
-835.128,22.0681,20.0003,8.6241e-07,NaN,1.97393e-07,NaN,""
-817.21,22.0495,20.0002,6.22753e-07,NaN,1.42539e-07,NaN,""
-778.664,22.0095,20.0001,7.86869e-07,NaN,1.80103e-07,NaN,""
-751.47,21.992,20,1.10994e-06,NaN,2.54049e-07,NaN,""
-724.276,21.995,19.9999,1.43301e-06,NaN,3.27996e-07,NaN,""
-700.569,21.9976,19.9999,1.08814e-06,NaN,2.4906e-07,NaN,""
-683.061,21.9995,19.9999,1.07707e-06,NaN,2.46526e-07,NaN,""
-674.268,21.9977,19.9999,8.31032e-07,NaN,1.90211e-07,NaN,""
-665.475,21.9895,19.9999,5.84995e-07,NaN,1.33897e-07,NaN,""
-649.116,21.9742,19.9999,7.44644e-07,NaN,1.70438e-07,NaN,""
-630.233,21.9566,19.9999,1.54675e-07,NaN,3.54029e-08,NaN,""
-613.1,21.9406,19.9999,3.16159e-07,NaN,7.23642e-08,NaN,""
-604.678,21.9505,19.9999,2.90374e-07,NaN,6.64624e-08,NaN,""
-572.648,22.0061,19.9999,NaN,NaN,NaN,NaN,""
-519.875,21.9902,19.9999,NaN,NaN,NaN,NaN,""
-467.103,21.9744,19.9999,NaN,NaN,NaN,NaN,""
-400.612,21.9353,19.9999,NaN,NaN,NaN,NaN,""
-376.581,21.9971,19.9999,NaN,NaN,NaN,NaN,""
-353.737,21.8412,19.9999,NaN,NaN,NaN,NaN,""
-331.14,21.9776,20,NaN,NaN,NaN,NaN,""
-297.003,21.9713,20,NaN,NaN,NaN,NaN,""
-293.131,21.9943,20,NaN,NaN,NaN,NaN,""
-280.378,22.0699,19.9998,NaN,NaN,NaN,NaN,""
-248.618,22.0158,19.9995,NaN,NaN,NaN,NaN,""
-222.361,22.0255,19.9997,NaN,NaN,NaN,NaN,""
-209.396,22.0303,19.9999,NaN,NaN,NaN,NaN,""
-191.304,22.037,20.0003,NaN,NaN,NaN,NaN,""
-167.486,22.0661,20,NaN,NaN,NaN,NaN,""
-143.878,22.096,19.9998,NaN,NaN,NaN,NaN,""
-135.622,22.0467,19.9998,NaN,NaN,NaN,NaN,""
-127.366,21.9974,19.9998,NaN,NaN,NaN,NaN,""
-85.9503,22.0172,19.9999,NaN,NaN,NaN,NaN,""
-58.7999,21.9211,20,NaN,NaN,NaN,NaN,""
-36.8126,22.006,20.0001,NaN,NaN,NaN,NaN,""
-14.8253,22.0909,20.0001,NaN,NaN,NaN,NaN,""
19.7821,22.137,20,NaN,NaN,NaN,NaN,""
66.3964,22.0881,20,NaN,NaN,NaN,NaN,""
84.0328,22.0276,19.9999,NaN,NaN,NaN,NaN,""
95.628,22.0182,19.9999,NaN,NaN,NaN,NaN,""
120.221,22.0575,19.9997,NaN,NaN,NaN,NaN,""
150.95,22.0613,19.9995,NaN,NaN,NaN,NaN,""
157.684,22.1539,19.9995,NaN,NaN,NaN,NaN,""
164.419,22.2464,19.9996,NaN,NaN,NaN,NaN,""
180.411,22.2754,19.9997,NaN,NaN,NaN,NaN,""
205.622,22.0301,20,NaN,NaN,NaN,NaN,""
220.377,22.0675,20,NaN,NaN,NaN,NaN,""
235.133,22.1049,20.0001,NaN,NaN,NaN,NaN,""
269.005,22.0972,20.0002,NaN,NaN,NaN,NaN,""
289.657,22.1117,20.0001,NaN,NaN,NaN,NaN,""
308.913,22.1252,19.9999,NaN,NaN,NaN,NaN,""
329.565,22.1017,19.9999,NaN,NaN,NaN,NaN,""
366.852,22.0542,20.0001,NaN,NaN,NaN,NaN,""
397.247,22.0615,19.9998,NaN,NaN,NaN,NaN,""
416.099,22.066,19.9998,NaN,NaN,NaN,NaN,""
449.476,22.074,20.0001,NaN,NaN,NaN,NaN,""
484.506,22.0496,20,NaN,NaN,NaN,NaN,""
518.778,22.022,19.9999,NaN,NaN,NaN,NaN,""
546.278,22.054,19.9999,NaN,NaN,NaN,NaN,""
573.778,22.0859,19.9999,NaN,NaN,NaN,NaN,""
614.426,22.0515,19.9999,NaN,NaN,NaN,NaN,""
622.992,22.0528,19.9999,NaN,NaN,NaN,NaN,""
664.341,22.0592,20.0005,NaN,NaN,NaN,NaN,""
672.397,22.0546,20.0003,NaN,NaN,NaN,NaN,""
680.454,22.0432,20,NaN,NaN,NaN,NaN,""
710.891,21.9999,19.9996,NaN,NaN,NaN,NaN,""
732.593,21.9977,19.9997,NaN,NaN,NaN,NaN,""
754.295,22.0089,19.9998,NaN,NaN,NaN,NaN,""
781.603,22.0223,19.9998,NaN,NaN,NaN,NaN,""
808.911,22.0267,19.9997,NaN,NaN,NaN,NaN,""
829.989,22.0301,20.0001,NaN,NaN,NaN,NaN,""
862.411,22.0353,19.9997,NaN,NaN,NaN,NaN,""
880.983,22.0383,19.9998,NaN,NaN,NaN,NaN,""
902.497,21.9846,20,NaN,NaN,NaN,NaN,""
911.53,21.8717,20.0001,NaN,NaN,NaN,NaN,""
926.122,21.9534,20.0001,NaN,NaN,NaN,NaN,""
940.714,22.0351,20,NaN,NaN,NaN,NaN,""
999.721,22.0943,19.9997,NaN,NaN,NaN,NaN,""
1037.39,22.0603,19.9997,NaN,NaN,NaN,NaN,""
1075.06,22.0263,19.9997,NaN,NaN,NaN,NaN,""
1117.14,22.0366,19.9998,NaN,NaN,NaN,NaN,""
1122.88,22.0351,20,NaN,NaN,NaN,NaN,""
1128.62,22.0329,20.0003,NaN,NaN,NaN,NaN,""
1154.47,22.0227,19.9997,NaN,NaN,NaN,NaN,""
1197.37,22.0058,19.9998,NaN,NaN,NaN,NaN,""
1219.64,22.0109,20,NaN,NaN,NaN,NaN,""
1258.62,22.0198,20.0002,NaN,NaN,NaN,NaN,""
1278.05,22.0242,19.9997,NaN,NaN,NaN,NaN,""
1304.47,22.0303,19.9999,NaN,NaN,NaN,NaN,""
1330.93,22.0363,19.9996,NaN,NaN,NaN,NaN,""
1364.9,22.0441,19.9999,NaN,NaN,NaN,NaN,""
1386.77,22.0283,19.9999,NaN,NaN,NaN,NaN,""
1411.09,22.0108,19.9998,NaN,NaN,NaN,NaN,""
1440.35,22.0028,19.9997,NaN,NaN,NaN,NaN,""
1499.44,21.9865,19.9997,NaN,NaN,NaN,NaN,""
1511.77,22.0147,19.9998,NaN,NaN,NaN,NaN,""
1521.53,22.0292,19.9998,NaN,NaN,NaN,NaN,""
1570.75,21.9913,20.0002,NaN,NaN,NaN,NaN,""
1590.69,22.0537,20.0002,NaN,NaN,NaN,NaN,""
1610.63,22.116,19.9998,NaN,NaN,NaN,NaN,""
1623.62,22.0948,19.9998,NaN,NaN,NaN,NaN,""
1636.62,22.0736,19.9999,NaN,NaN,NaN,NaN,""
1657,22.1442,20.0002,NaN,NaN,NaN,NaN,""
1668.18,22.1047,20.0003,NaN,NaN,NaN,NaN,""
1674.89,22.0989,20.0003,NaN,NaN,NaN,NaN,""
1697.02,22.11,20.0002,NaN,NaN,NaN,NaN,""
1742.14,22.0513,20.0001,NaN,NaN,NaN,NaN,""
1767.58,22.039,20.0001,NaN,NaN,NaN,NaN,""
1865.12,22.015,20.0003,NaN,NaN,NaN,NaN,""
1881.9,22.0109,19.9999,NaN,NaN,NaN,NaN,""
1933.5,21.9982,19.9999,NaN,NaN,NaN,NaN,""
1971.54,21.9998,19.9998,NaN,NaN,NaN,NaN,""
1992.26,22.0006,19.9995,NaN,NaN,NaN,NaN,""
2052.56,22.0031,19.9998,NaN,NaN,NaN,NaN,""
2101.35,22.0051,19.9998,NaN,NaN,NaN,NaN,""
2129.14,21.9935,20,NaN,NaN,NaN,NaN,""
2151.3,21.9842,20.0003,NaN,NaN,NaN,NaN,""
2197.17,21.9651,20,NaN,NaN,NaN,NaN,""
2216.16,22.0671,19.9998,NaN,NaN,NaN,NaN,""
2223.89,22.1211,19.9998,NaN,NaN,NaN,NaN,""
2231.62,22.1751,19.9998,NaN,NaN,NaN,NaN,""
2242.79,21.9939,19.9998,NaN,NaN,NaN,NaN,""
2253.34,22.0506,19.9998,NaN,NaN,NaN,NaN,""
2267.8,22.1615,19.9998,NaN,NaN,NaN,NaN,""
2307.34,22.0825,19.9999,NaN,NaN,NaN,NaN,""
2330.79,22.0775,20,NaN,NaN,NaN,NaN,""
2345.32,22.0846,20.0002,NaN,NaN,NaN,NaN,""
2399.17,22.0611,20.0005,NaN,NaN,NaN,NaN,""
2433.18,22.0462,19.9999,NaN,NaN,NaN,NaN,""
2464.78,22.0324,20.0002,NaN,NaN,NaN,NaN,""
2491.38,22.0491,20.0003,NaN,NaN,NaN,NaN,""
2522.93,22.0688,19.9999,NaN,NaN,NaN,NaN,""
2523.81,22.0694,19.9999,NaN,NaN,NaN,NaN,""
2543.83,22.0027,20,NaN,NaN,NaN,NaN,""
2560.59,22.1017,20.0001,NaN,NaN,NaN,NaN,""
2569.05,22.1364,20,NaN,NaN,NaN,NaN,""
2582.5,22.1909,19.9998,NaN,NaN,NaN,NaN,""
2590.15,22.1593,19.9997,NaN,NaN,NaN,NaN,"Reaction start. Measuring position. Signal correct"
2590.32,22.1586,19.9997,9.24171e-05,1.62762e-05,2.11529e-05,3.72538e-06,""
2884.32,21.9661,19.9998,0.00219345,0.0463604,0.000502048,0.0106112,""
2904.32,22.033,19.9999,0.0614305,0.580409,0.0140605,0.132847,""
2926.32,22.113,20,0.149837,2.92361,0.0342954,0.66917,""
2945.32,22.1301,19.9999,0.208572,6.36136,0.0477391,1.45602,""
2965.32,22.099,19.9997,0.248479,10.9666,0.0568732,2.5101,""
2985.32,22.1093,19.9995,0.270278,16.1796,0.0618626,3.70328,""
3010.82,22.0616,19.9997,0.280188,23.2318,0.0641309,5.31741,""
3043.82,22.0851,20,0.275687,32.4416,0.0631007,7.4254,""
3088.2,22.0555,19.9999,0.255813,44.268,0.058552,10.1323,""
3153.7,22.0418,19.9999,0.218814,59.8236,0.0500833,13.6927,""
3200.87,22.0198,20,0.192785,69.5254,0.0441258,15.9133,""
3261.82,22.0107,19.9996,0.162524,80.3329,0.0371993,18.387,""
3317.64,22.0327,19.9999,0.138479,88.7166,0.0316957,20.3059,""
3386.57,22.0118,19.9999,0.113486,97.3735,0.0259753,22.2874,""
3454.07,22.0253,19.9999,0.0933687,104.332,0.0213707,23.8801,""
3514.82,22.0422,19.9995,0.0784206,109.537,0.0179493,25.0713,""
3603.02,22.1314,19.9997,0.0610607,115.653,0.0139759,26.4713,""
3700.32,22.1296,19.9999,0.0466021,120.857,0.0106665,27.6623,""
3793.72,22.1053,20,0.0362318,124.702,0.00829293,28.5425,""
3907.51,22.0353,19.9999,0.0269943,128.27,0.00617861,29.359,""
4039.01,22.0751,20.0002,0.0196086,131.302,0.00448813,30.0531,""
4177.2,22.0644,19.9999,0.014414,133.628,0.00329915,30.5856,""
4320.1,22.081,19.9999,0.0108521,135.416,0.0024839,30.9948,""
4517.6,22.1415,20,0.00780353,137.231,0.00178611,31.4102,""
4707.59,22.0805,19.9997,0.00607124,138.536,0.00138962,31.7088,""
4926.63,22.0917,19.9997,0.00487721,139.723,0.00111632,31.9806,""
5160.76,22.1827,20,0.00411403,140.768,0.00094164,32.2198,""
5464.76,22.0918,19.9999,0.00352176,141.921,0.000806079,32.4837,""
5877.98,22.096,19.9998,0.00313188,143.282,0.00071684,32.7951,""
6307.73,22.1286,20,0.00298712,144.591,0.000683708,33.0949,""
6725.02,22.1102,19.9996,0.00292023,145.823,0.000668398,33.3768,""
7235.07,22.1112,19.9997,0.00286476,147.297,0.000655702,33.7142,""
7856.18,22.1221,19.9999,0.00282868,149.064,0.000647444,34.1185,""
8379.7,22.4412,19.9999,0.00282187,150.542,0.000645884,34.4569,""
8710.54,22.1545,19.9996,0.00282668,151.476,0.000646986,34.6707,""
9138.05,22.1302,19.9994,0.00284285,152.688,0.000650686,34.948,""
9733.19,22.1562,20,0.00288099,154.39,0.000659417,35.3377,""
10164,22.127,19.9998,0.00292,155.64,0.000668345,35.6237,""
10616.1,22.0955,19.9999,0.00296943,156.971,0.00067966,35.9283,""
11148.1,22.1741,19.9996,0.00303821,158.568,0.000695401,36.2939,""
11585.6,22.2817,20.0001,0.00310368,159.911,0.000710387,36.6014,""
12089.4,22.1868,19.9998,0.00318934,161.496,0.000729994,36.9641,""
12710.2,22.169,19.9995,0.00331043,163.513,0.000757709,37.4257,""
13143.3,22.1486,19.9995,0.00340562,164.966,0.000779496,37.7584,""
13793,22.1061,19.9995,0.00356816,167.231,0.0008167,38.2768,""
14287.1,22.0508,19.9999,0.00370683,169.028,0.000848439,38.688,""
14739,22.0817,20.0001,0.00384606,170.735,0.000880308,39.0786,""
15407.8,22.0563,19.9999,0.00407406,173.381,0.000932492,39.6844,""
15830.5,22.0612,20.0001,0.00423199,175.136,0.00096864,40.086,""
16350.8,22.1013,19.9999,0.00444056,177.391,0.00101638,40.6023,""
16806.4,22.0564,19.9997,0.00463627,179.459,0.00106117,41.0755,""
17304.6,22.0283,20.0002,0.00486438,181.825,0.00111339,41.617,""
17775.9,21.9998,19.9998,0.00509338,184.171,0.0011658,42.154,""
18238.5,21.9943,20,0.00533017,186.581,0.00122,42.7057,""
18592.6,22.0039,19.9997,0.00551927,188.502,0.00126328,43.1453,""
19160.9,21.9915,19.9996,0.00583646,191.728,0.00133588,43.8836,""
19714.8,21.9937,20.0001,0.00616104,195.05,0.00141017,44.6441,""
20193.7,21.994,19.9998,0.00645356,198.071,0.00147712,45.3355,""
20622.3,21.977,20,0.00672411,200.894,0.00153905,45.9817,""
21266.4,21.9533,19.9997,0.0071439,205.361,0.00163513,47.0041,""
21798.1,21.9946,19.9999,0.00750223,209.252,0.00171715,47.8948,""
22275.8,21.9396,19.9998,0.00783351,212.915,0.00179298,48.733,""
22838.4,21.9404,19.9988,0.00824072,217.436,0.00188618,49.7679,""
23478.7,21.9188,20.0002,0.00871701,222.865,0.0019952,51.0106,""
23900.7,21.9473,19.9998,0.00903637,226.611,0.00206829,51.8678,""
24536.2,21.9317,19.9998,0.00952226,232.508,0.00217951,53.2176,""
25051,21.9559,19.9999,0.00991565,237.511,0.00226955,54.3628,""
25528.8,21.8944,20.0002,0.0102823,242.336,0.00235347,55.467,""
26094.5,21.9615,19.9996,0.0107152,248.275,0.00245254,56.8266,""
26490.3,21.9691,20,0.011015,252.576,0.00252117,57.8108,""
26978.1,21.9558,20.0003,0.0113789,258.038,0.00260445,59.0611,""
27484.2,21.9477,19.9999,0.0117542,263.892,0.00269036,60.4011,""
28050.5,21.9677,20.0002,0.012167,270.666,0.00278485,61.9514,""
28444.1,21.9859,20,0.0124488,275.51,0.00284934,63.0601,""
28976.2,21.939,20.0001,0.0128252,282.237,0.00293551,64.6,""
29594.3,21.9327,19.9997,0.0132583,290.296,0.00303462,66.4446,""
30004,21.9379,20.0003,0.013574,295.79,0.0031069,67.702,""
30334.9,21.9403,20,0.01393,300.338,0.00318836,68.7429,""
30779.3,21.9216,19.9999,0.0144728,306.65,0.00331261,70.1876,""
31228.6,21.9286,19.9997,0.0149645,313.265,0.00342515,71.7018,""
31913.1,21.8912,20,0.0156393,323.743,0.00357961,74.1,""
32765.4,21.9163,19.9995,0.0163922,337.4,0.00375193,77.2259,""
33296.1,21.8996,19.9999,0.0168016,346.21,0.00384565,79.2424,""
33702.2,21.8874,20,0.0170751,353.089,0.00390824,80.8169,""
34240,21.926,19.9998,0.0173901,362.359,0.00398035,82.9386,""
34723.8,21.9184,20,0.017633,370.833,0.00403595,84.8782,""
35219.1,21.9345,20,0.0178455,379.62,0.00408456,86.8894,""
35543,21.9286,19.9996,0.0179654,385.42,0.00411203,88.217,""
35972.1,21.9614,20,0.0181034,393.16,0.00414359,89.9887,""
36521.5,21.9598,19.9996,0.0182461,403.148,0.00417627,92.2746,""
37017.1,21.9298,19.9997,0.0183414,412.215,0.00419808,94.3499,""
37494.8,21.9129,20,0.0184059,420.992,0.00421283,96.359,""
38050.4,21.9017,19.9997,0.0184464,431.233,0.0042221,98.7028,""
38542.4,21.9014,19.9999,0.0184527,440.31,0.00422355,100.78,""
39054.6,21.8849,19.9999,0.018433,449.758,0.00421904,102.943,""
39596.4,21.9061,19.9998,0.0183858,459.733,0.00420824,105.226,""
40133.9,21.8991,19.9997,0.0183152,469.597,0.00419208,107.484,""
40668.9,21.8735,19.9999,0.0182248,479.372,0.0041714,109.721,""
41162.7,21.9133,19.9998,0.018127,488.348,0.004149,111.776,""
41623.2,21.8868,19.9999,0.018026,496.671,0.00412589,113.681,""
42160.5,21.8632,20,0.0178995,506.324,0.00409693,115.89,""
42639.2,21.8588,20.0004,0.0177839,514.866,0.00407047,117.845,""
43152.5,21.8532,20.0001,0.0176587,523.962,0.00404182,119.927,""
43528.5,21.8959,20.0005,0.0175694,530.585,0.00402139,121.443,""
44143.3,21.8454,20,0.0174303,541.343,0.00398954,123.906,""
44708.6,21.8551,19.9998,0.017317,551.163,0.00396362,126.153,""
45174.1,21.9084,19.9999,0.0172372,559.206,0.00394533,127.994,""
45654.6,21.8369,19.9996,0.0171703,567.471,0.00393002,129.886,""
45986.6,21.8554,20,0.0171364,573.166,0.00392227,131.189,""
46438.5,21.827,20,0.0171064,580.902,0.00391539,132.96,""
46968.9,21.8459,19.9998,0.0171004,589.973,0.00391402,135.036,""
47442,21.8587,19.9998,0.0171204,598.065,0.00391861,136.888,""
47998.1,21.831,19.9997,0.0171774,607.6,0.00393166,139.071,""
48634.6,21.9104,19.9998,0.0172837,618.567,0.00395599,141.581,""
49185.5,21.8259,19.9997,0.0173994,628.118,0.00398248,143.767,""
49763,21.8052,19.9998,0.0175262,638.204,0.00401148,146.076,""
50244.4,21.81,19.9996,0.0176137,646.663,0.00403153,148.012,""
50741.7,21.8045,19.9999,0.0176603,655.437,0.00404219,150.02,""
51180,21.8096,19.9999,0.0176415,663.176,0.00403788,151.791,""
51607.4,21.7973,20,0.0175467,670.698,0.00401617,153.513,""
52011.3,21.807,20,0.0173734,677.753,0.00397651,155.128,""
52388.8,21.8183,19.9998,0.0171358,684.269,0.00392213,156.619,""
52944.1,21.8126,19.9999,0.0166791,693.662,0.00381761,158.769,""
53448.6,21.783,19.9998,0.0162,701.957,0.00370793,160.668,""
53972.9,21.8122,19.9999,0.0156889,710.317,0.00359096,162.581,""
54360.1,21.7818,19.9997,0.0153234,716.319,0.00350729,163.955,""
54794.7,21.7936,19.9999,0.0149337,722.894,0.00341811,165.46,""
55218,21.7838,19.9999,0.0145763,729.139,0.0033363,166.889,""
55619.2,21.7771,20.0001,0.0142548,734.921,0.00326271,168.213,""
56029.5,21.7864,19.9997,0.0139406,740.705,0.0031908,169.536,""
56674.4,21.7783,19.9999,0.0134686,749.542,0.00308277,171.559,""
57198,21.7795,19.9997,0.0131018,756.495,0.00299882,173.151,""
57697.1,21.7596,19.9998,0.0127613,762.952,0.00292088,174.629,""
58179.4,21.7614,20.0004,0.0124406,769.029,0.00284747,176.019,""
58575.6,21.791,20.0001,0.0121816,773.907,0.00278819,177.136,""
59077.1,21.75,19.9999,0.0118617,779.936,0.00271497,178.516,""
59553.7,21.7605,19.9996,0.0115659,785.518,0.00264726,179.794,""
60066.9,21.7508,19.9999,0.0112583,791.375,0.00257687,181.134,""
60623,21.7556,19.9998,0.0109419,797.546,0.00250445,182.547,""
61123.4,21.7532,19.9997,0.010674,802.954,0.00244313,183.784,""
61663.5,21.7328,19.9996,0.0104064,808.646,0.00238187,185.087,""
62171.2,21.7867,20.0001,0.0101758,813.869,0.0023291,186.283,""
62835.7,21.7719,19.9999,0.00990599,820.54,0.00226734,187.809,""
63259.6,21.9535,19.9995,0.00975262,824.706,0.00223223,188.763,""
63773.6,21.808,19.9999,0.0095828,829.674,0.00219336,189.9,""
64254.5,21.8233,19.9998,0.00943999,834.249,0.00216068,190.947,""
64910.5,21.8452,19.9999,0.00926799,840.383,0.00212131,192.351,""
65503.3,21.8702,19.9997,0.00913219,845.836,0.00209022,193.599,""
65906.8,21.8611,20,0.00904831,849.503,0.00207102,194.439,""
66445.5,21.8549,19.9997,0.00894717,854.349,0.00204788,195.548,""
66940.1,21.8838,20.0006,0.00886135,858.754,0.00202823,196.556,""
67277.8,21.866,20.0003,0.00880777,861.737,0.00201597,197.239,""
67862.2,21.8899,19.9987,0.00872022,866.859,0.00199593,198.411,""
68567.7,21.9098,19.9998,0.0086215,872.975,0.00197334,199.811,""
69193.1,21.8909,19.9999,0.00853937,878.341,0.00195454,201.039,""
69730.1,21.8986,19.9997,0.00846894,882.908,0.00193842,202.085,""
70170.9,21.8765,19.9997,0.00841184,886.628,0.00192535,202.936,""
70720.2,21.9028,19.9999,0.00833949,891.229,0.00190879,203.989,""
71165,21.9077,20.0001,0.0082795,894.925,0.00189506,204.835,""
71775.7,21.9189,20,0.00819482,899.956,0.00187568,205.987,""
72229.2,21.9724,19.9998,0.00812906,903.658,0.00186062,206.834,""
72734.3,21.9524,19.9998,0.00805343,907.745,0.00184331,207.769,""
73342.2,21.9576,19.9997,0.00795997,912.612,0.00182192,208.884,""
73802.3,21.9791,20.0003,0.00788665,916.257,0.00180514,209.718,""
74354,21.9897,19.9996,0.00779709,920.584,0.00178464,210.708,""
74818.2,21.9712,19.9995,0.0077192,924.185,0.00176681,211.532,""
75417.8,22.0097,20,0.00761799,928.783,0.00174365,212.585,""
75942.5,22.0134,20.0002,0.00753131,932.758,0.00172381,213.495,""
76354.8,21.9676,19.9998,0.00747986,935.852,0.00171203,214.203,""
76958,21.9905,19.9997,0.00739175,940.34,0.00169186,215.23,""
77453.5,21.9685,19.9996,0.00729387,943.983,0.00166946,216.064,""
77824.7,21.9633,20.0001,0.00720393,946.673,0.00164887,216.679,""
78293,21.9472,19.9997,0.00711317,950.025,0.0016281,217.447,""
78737.4,21.975,20,0.00702692,953.167,0.00160836,218.166,""
79293,21.9638,19.9999,0.00692306,957.041,0.00158459,219.053,""
79787.6,21.9742,19.9996,0.00683601,960.444,0.00156466,219.832,""
80394.7,21.9936,20.0002,0.00673479,964.563,0.0015415,220.774,""
80879,21.9791,19.9996,0.00665847,967.806,0.00152403,221.517,""
81494.6,21.9764,19.9998,0.00655575,971.874,0.00150052,222.448,""
82056.1,21.9758,19.9998,0.00646721,975.529,0.00148025,223.284,""
82718,21.9873,19.9997,0.00636575,979.776,0.00145703,224.256,""
83215.8,21.9869,19.9999,0.0062915,982.927,0.00144003,224.977,""
83873.3,21.9849,19.9998,0.00619689,987.033,0.00141838,225.917,""
84269.7,21.998,20.0011,0.00614193,989.478,0.0014058,226.477,""
84865.8,21.9798,20.0002,0.00606097,993.115,0.00138727,227.309,""
85366.1,21.997,19.9989,0.00599546,996.131,0.00137227,228,""
85900,21.9938,19.9999,0.00592817,999.314,0.00135687,228.728,""
86633.9,22.0033,20,0.00583897,1003.63,0.00133645,229.717,""
87262.9,22.036,20,0.0057628,1007.28,0.00131902,230.552,""
87905.5,22.0176,19.9996,0.00569003,1010.96,0.00130236,231.394,""
88415.7,22.0509,19.9998,0.00563404,1013.85,0.00128955,232.055,""
88812.4,22.0673,19.9996,0.00559225,1016.08,0.00127998,232.565,""
89373.5,22.0782,20.0002,0.00553509,1019.2,0.0012669,233.279,""
89722.6,22.079,19.9999,0.0055006,1021.12,0.00125901,233.72,""
90206.4,22.0628,19.9997,0.0054534,1023.77,0.0012482,234.327,""
90642.5,22.0397,19.9999,0.00541225,1026.14,0.00123878,234.869,""
91060,22.0682,19.9999,0.00537455,1028.39,0.00123016,235.384,""
91439.3,22.0754,19.9999,0.0053413,1030.43,0.00122255,235.849,""
91926.9,22.0785,20.0001,0.00529919,1033.02,0.00121291,236.443,""
92530.9,22.0921,19.9996,0.00524878,1036.21,0.00120137,237.172,""
93343.7,22.0572,19.9995,0.00518405,1040.44,0.00118655,238.143,""
93751.1,22.0793,19.9996,0.00515278,1042.55,0.00117939,238.625,""
94332,22.026,20,0.00511001,1045.53,0.00116961,239.307,""
94773.8,22.0143,19.9999,0.00507795,1047.78,0.00116227,239.822,""
95290.4,22.0181,20,0.00504161,1050.4,0.00115395,240.42,""
95850.6,22.0189,19.9998,0.00500423,1053.21,0.0011454,241.064,""
96409.8,22.0037,20,0.00496814,1056,0.00113714,241.702,""
96990.6,22.0139,19.9999,0.00493066,1058.87,0.00112856,242.36,""
97440.3,21.9909,19.9997,0.00490266,1061.08,0.00112215,242.866,""
98062.6,21.9857,19.9994,0.00486584,1064.12,0.00111372,243.562,""
98515.5,21.9906,19.9998,0.0048404,1066.32,0.0011079,244.065,""
99091.9,22.0062,19.9999,0.00480721,1069.1,0.0011003,244.702,""
99710.2,22.0143,19.9997,0.00477406,1072.06,0.00109271,245.38,""
100175,21.9856,19.9999,0.00474931,1074.28,0.00108705,245.886,""
100660,21.993,19.9993,0.0047239,1076.57,0.00108123,246.412,""
101201,21.9979,19.9998,0.00469663,1079.12,0.00107499,246.995,""
101808,22.0037,19.9998,0.00466725,1081.96,0.00106827,247.646,""
102532,22.0413,19.9999,0.00463279,1085.33,0.00106038,248.416,""
103173,22.1504,19.9999,0.0046029,1088.29,0.00105354,249.094,""
103697,21.9907,19.9994,0.00457947,1090.7,0.00104817,249.645,""
104122,21.9481,19.9997,0.00456068,1092.64,0.00104387,250.089,""
104560,21.9509,19.9995,0.00454142,1094.63,0.00103946,250.545,""
105101,21.9324,19.9999,0.00451835,1097.08,0.00103418,251.106,""
105700,21.902,19.9995,0.00449288,1099.78,0.00102835,251.724,""
106325,21.8712,19.9997,0.00446689,1102.58,0.00102241,252.364,""
106908,21.8525,19.9997,0.00444322,1105.18,0.00101699,252.959,""
107413,21.8437,20,0.00442303,1107.42,0.00101237,253.472,""
107918,21.832,20,0.0044031,1109.65,0.0010078,253.982,""
108356,21.7951,19.9995,0.00438551,1111.57,0.00100378,254.422,""
108774,21.8057,19.9997,0.00436936,1113.4,0.00100008,254.841,""
109165,21.7883,19.9999,0.00435418,1115.11,0.000996608,255.231,""
109682,21.807,19.9998,0.00433416,1117.35,0.000992025,255.745,""
110256,21.7999,19.9997,0.00431263,1119.83,0.000987098,256.313,""
110817,21.7765,20.0001,0.00429119,1122.24,0.000982189,256.865,""
111306,21.79,20,0.00427248,1124.34,0.000977909,257.345,""
111820,21.7893,19.9999,0.00425396,1126.53,0.00097367,257.847,""
112374,21.7539,19.9995,0.0042335,1128.88,0.000968985,258.385,""
112830,21.7741,20,0.00421678,1130.81,0.000965159,258.826,""
113246,21.7532,20.0002,0.00420192,1132.56,0.000961759,259.226,""
113871,21.7722,19.9995,0.00417926,1135.18,0.00095657,259.826,""
114340,21.7434,19.9994,0.00416189,1137.13,0.000952595,260.274,""
114889,21.7579,20,0.00414241,1139.41,0.000948137,260.795,""
115363,21.7778,19.9999,0.00412471,1141.38,0.000944085,261.244,""
115875,21.7637,19.9997,0.00410627,1143.48,0.000939864,261.726,""
116273,21.7726,19.9999,0.00409232,1145.11,0.000936671,262.1,""
116781,21.7573,20,0.00407413,1147.19,0.000932508,262.574,""
117299,21.7375,19.9999,0.00405373,1149.29,0.000927838,263.056,""
117873,21.7516,19.9999,0.004035,1151.61,0.000923553,263.587,""
118377,21.749,20.0001,0.00401741,1153.64,0.000919525,264.051,""
118984,21.7606,19.9999,0.0039957,1156.07,0.000914557,264.608,""
119549,21.739,19.9996,0.00397614,1158.32,0.00091008,265.123,""
120071,21.7149,19.9998,0.00395717,1160.4,0.000905739,265.598,""
120470,21.7212,19.9997,0.00394349,1161.97,0.000902607,265.959,""
120949,21.7011,19.9998,0.00392694,1163.86,0.000898819,266.39,""
121581,21.7017,20.0002,0.00390487,1166.33,0.000893767,266.956,""
121972,21.7274,19.9998,0.00389174,1167.86,0.000890761,267.306,""
122628,21.7202,20.0001,0.00386844,1170.4,0.000885429,267.887,""
123268,21.6931,19.9997,0.00384655,1172.87,0.000880418,268.453,""
123693,21.6878,19.9998,0.00383196,1174.5,0.00087708,268.826,""
124471,21.6936,19.9999,0.00380513,1177.47,0.000870939,269.506,""
125046,21.684,20.0008,0.00378569,1179.65,0.00086649,270.006,""
125445,21.6918,20.0002,0.00377224,1181.16,0.00086341,270.351,""
125926,21.6772,20,0.00375577,1182.98,0.00085964,270.766,""
126547,21.7095,19.9996,0.00373429,1185.3,0.000854724,271.298,""
127116,21.6827,19.9998,0.00371474,1187.42,0.00085025,271.783,""
127579,21.6516,19.9998,0.00369932,1189.14,0.00084672,272.176,""
128116,21.6701,19.9998,0.00368124,1191.12,0.000842582,272.63,""
128569,21.6393,19.9997,0.00366612,1192.78,0.000839121,273.01,""
129187,21.7009,20.0001,0.00364533,1195.04,0.000834363,273.527,""
129728,21.6641,19.9999,0.00362703,1197.01,0.000830174,273.978,""
130285,21.6621,19.9998,0.00360841,1199.02,0.000825913,274.438,""
130682,21.6609,19.9999,0.00359507,1200.45,0.00082286,274.766,""
131282,21.6481,20.0001,0.00357516,1202.6,0.000818303,275.258,""
131862,21.6428,19.9998,0.00355612,1204.67,0.000813944,275.732,""
132563,21.6974,20,0.00353327,1207.16,0.000808713,276.301,""
133209,21.6247,19.9997,0.00351184,1209.43,0.000803808,276.821,""
133723,21.6351,19.9999,0.0034957,1211.23,0.000800115,277.234,""
134279,21.6195,20.0001,0.00347779,1213.17,0.000796015,277.677,""
134823,21.6022,20,0.00346006,1215.06,0.000791957,278.109,""
135365,21.5961,19.9993,0.00344303,1216.93,0.000788058,278.537,""
135999,21.6041,19.9996,0.003423,1219.11,0.000783475,279.036,""
136425,21.6216,19.9996,0.00340937,1220.56,0.000780355,279.369,""
137113,21.611,19.9998,0.00338761,1222.9,0.000775375,279.903,""
137457,21.6307,20.0001,0.00337685,1224.06,0.000772912,280.17,""
137983,21.611,19.9998,0.00336079,1225.83,0.000769236,280.575,""
138587,21.6051,19.9998,0.00334175,1227.86,0.000764877,281.039,""
139241,21.5797,20,0.00332213,1230.04,0.000760388,281.538,""
139780,21.5832,19.9999,0.00330561,1231.82,0.000756605,281.946,""
140263,21.5939,20,0.00329093,1233.42,0.000753245,282.311,""
140734,21.6188,19.9999,0.00327678,1234.96,0.000750006,282.665,""
141223,21.5728,20,0.00326193,1236.56,0.000746607,283.031,""
141792,21.5783,19.9997,0.00324501,1238.41,0.000742735,283.455,""
142183,21.5723,19.9999,0.00323371,1239.68,0.000740148,283.745,""
142793,21.5659,19.9996,0.00321536,1241.65,0.000735948,284.195,""
143341,21.5663,19.9996,0.00319985,1243.4,0.000732399,284.597,""
144029,21.5857,20.0001,0.00317995,1245.6,0.000727843,285.099,""
144543,21.5776,19.9996,0.00316547,1247.23,0.00072453,285.473,""
144928,21.5931,19.9998,0.00315428,1248.45,0.000721968,285.751,""
145383,21.5689,19.9999,0.00314131,1249.88,0.000718999,286.079,""
145972,21.5739,20,0.0031246,1251.72,0.000715174,286.501,""
146437,21.558,19.9997,0.00311139,1253.17,0.000712152,286.833,""
146907,21.5694,20,0.00309834,1254.63,0.000709164,287.167,""
147459,21.5194,19.9997,0.00308325,1256.34,0.000705711,287.557,""
147868,21.5277,19.9996,0.00307183,1257.6,0.000703098,287.846,""
148346,21.5286,19.9995,0.0030588,1259.06,0.000700114,288.181,""
148803,21.5278,19.9998,0.00304649,1260.46,0.000697297,288.5,""
149192,21.5616,20,0.00303613,1261.64,0.000694926,288.771,""
149610,21.5699,19.9999,0.00302503,1262.91,0.000692384,289.061,""
150088,21.5395,20.0001,0.00301174,1264.35,0.000689343,289.392,""
150596,21.5256,19.9998,0.00299802,1265.88,0.000686203,289.741,""
151233,21.5577,20,0.00298214,1267.78,0.000682567,290.177,""
151656,21.5345,19.9999,0.00297072,1269.04,0.000679954,290.465,""
152185,21.5692,19.9996,0.0029569,1270.61,0.00067679,290.824,""
152770,21.5442,19.9999,0.00294169,1272.33,0.00067331,291.219,""
153230,21.5477,19.9997,0.00293009,1273.68,0.000670654,291.527,""
153609,21.5516,19.9998,0.00291997,1274.79,0.000668339,291.781,""
154260,21.5618,20,0.00290367,1276.69,0.000664607,292.215,""
154782,21.6043,19.9999,0.00289071,1278.2,0.000661641,292.562,""
155182,21.627,19.9994,0.00287999,1279.36,0.000659188,292.826,""
155655,21.5595,20.0001,0.00286846,1280.71,0.000656549,293.137,""
156076,21.5358,19.9995,0.00285817,1281.92,0.000654193,293.413,""
156566,21.588,19.9998,0.00284629,1283.32,0.000651475,293.733,""
156985,21.6183,19.9999,0.00283602,1284.51,0.000649122,294.005,""
157696,21.7538,20.0003,0.0028191,1286.52,0.000645251,294.465,""
158116,21.8833,19.9997,0.00280866,1287.7,0.000642862,294.736,""
158509,21.791,19.9999,0.00279954,1288.8,0.000640774,294.988,""
158908,21.8544,19.9999,0.00279022,1289.92,0.00063864,295.244,""
159332,21.7916,19.9999,0.00278035,1291.1,0.000636382,295.513,""
159670,21.9607,20.0001,0.00277245,1292.04,0.000634573,295.728,""
160088,21.8555,20,0.00276255,1293.19,0.000632308,295.993,""
160594,21.8118,20,0.00275092,1294.59,0.000629645,296.312,""
161050,21.7989,20,0.00273994,1295.84,0.000627131,296.599,""
161528,21.9144,19.9999,0.00272899,1297.15,0.000624625,296.898,""
162173,21.8398,19.9997,0.00271495,1298.9,0.000621411,297.3,""
162723,21.8819,20,0.00270204,1300.39,0.000618458,297.641,""
163267,21.8589,20.0002,0.00268909,1301.86,0.000615493,297.977,""
163622,21.8505,20.0003,0.00268236,1302.81,0.000613953,298.195,""
164207,21.8519,19.9998,0.00266864,1304.38,0.000610812,298.553,""
164626,21.8727,20.0001,0.00265955,1305.49,0.000608732,298.808,""
165389,21.8665,19.9998,0.00264288,1307.52,0.000604917,299.272,""
165836,21.8767,20,0.00263296,1308.7,0.000602645,299.541,""
166291,21.8855,20.0003,0.00262311,1309.89,0.000600392,299.815,""
166635,21.9139,19.9998,0.00261546,1310.79,0.000598641,300.021,""
167128,21.8768,19.9999,0.00260492,1312.08,0.000596229,300.316,""
167695,21.9461,20.0004,0.00259353,1313.55,0.000593622,300.653,""
168129,21.9547,20.0001,0.00258371,1314.68,0.000591372,300.91,""
168591,21.9828,19.9998,0.0025741,1315.87,0.000589175,301.183,""
169069,21.9592,19.9999,0.00256414,1317.1,0.000586894,301.464,""
169648,21.9535,20.0001,0.00255192,1318.58,0.000584098,301.803,""
169976,21.9445,20.0002,0.00254512,1319.41,0.00058254,301.994,""
170405,22.1391,20.0003,0.00253627,1320.5,0.000580515,302.244,""
170834,21.9901,19.9998,0.0025275,1321.59,0.000578508,302.493,""
171345,22.0348,19.9999,0.00251753,1322.88,0.000576225,302.787,""
171712,22.0468,19.9997,0.00250994,1323.8,0.000574489,302.998,""
172310,22.0078,20.0002,0.00249763,1325.3,0.000571672,303.341,""
172784,22.0017,19.9998,0.00248827,1326.48,0.000569529,303.612,""
173365,22.0083,19.9996,0.00247563,1327.92,0.000566635,303.942,""
173787,22.1113,20,0.00246695,1328.97,0.000564648,304.181,""
174264,22.2068,19.9998,0.00245854,1330.14,0.000562723,304.449,""
174707,22.0192,20,0.00244992,1331.23,0.00056075,304.698,""
175077,22.0751,20.0002,0.00244263,1332.13,0.000559081,304.905,""
175520,22.0525,19.9998,0.00243408,1333.21,0.000557124,305.152,""
175977,22.118,19.9998,0.00242533,1334.32,0.000555123,305.407,""
176400,22.0678,19.9996,0.00241717,1335.35,0.000553254,305.641,""
176801,22.0871,20,0.00240962,1336.31,0.000551527,305.862,""
177200,22.127,20.0003,0.00240164,1337.27,0.000549699,306.082,""
177622,22.0971,19.9998,0.00239385,1338.29,0.000547916,306.314,""
178128,22.2725,20,0.00238431,1339.49,0.000545734,306.591,""
178625,22.1607,19.9998,0.0023748,1340.68,0.000543558,306.862,""
179013,22.1676,19.9998,0.00236744,1341.6,0.000541873,307.072,""
179392,22.2227,20.0001,0.00236095,1342.49,0.000540387,307.277,""
179772,22.1446,19.9999,0.00235389,1343.39,0.000538771,307.482,""
180196,22.1274,19.9999,0.00234607,1344.39,0.000536981,307.71,""
180613,22.16,19.9993,0.00233845,1345.36,0.000535237,307.934,""
180979,22.2076,19.9997,0.00233234,1346.22,0.000533838,308.129,""
181309,22.1803,20,0.00232618,1346.98,0.000532429,308.305,""
181830,22.1123,19.9996,0.00231631,1348.19,0.00053017,308.582,""
182318,22.1204,19.9998,0.00230765,1349.32,0.000528187,308.84,""
182954,22.1465,19.9999,0.00229591,1350.79,0.0005255,309.176,""
183589,22.1487,20.0001,0.00228488,1352.24,0.000522976,309.508,""
184023,22.0991,19.9999,0.00227723,1353.23,0.000521224,309.735,""
184586,22.0729,19.9998,0.00226708,1354.51,0.000518901,310.028,""
185030,22.0618,19.9997,0.00225936,1355.52,0.000517135,310.258,""
185572,22.0517,20.0001,0.00225031,1356.74,0.000515063,310.537,""
186128,22.0645,19.9999,0.00224056,1357.99,0.000512831,310.823,""
186534,22.0152,19.9996,0.00223371,1358.89,0.000511264,311.031,""
186851,22.0164,20.0001,0.00222836,1359.6,0.000510039,311.193,""
187373,21.9796,19.9994,0.00221931,1360.76,0.000507967,311.459,""
187766,21.9568,19.9998,0.00221262,1361.63,0.000506437,311.658,""
188206,21.9224,19.9998,0.00220507,1362.6,0.000504709,311.88,""
188726,21.9181,19.9994,0.00219667,1363.75,0.000502786,312.142,""
189245,21.9149,19.9999,0.00218796,1364.89,0.000500792,312.403,""
189888,21.893,19.9999,0.00217737,1366.29,0.000498368,312.724,""
190431,21.8743,20.0001,0.00216799,1367.47,0.000496222,312.994,""
190798,21.8721,19.9998,0.00216201,1368.26,0.000494852,313.176,""
191203,21.8561,20,0.00215549,1369.14,0.000493359,313.376,""
191668,21.8749,20.0002,0.00214794,1370.14,0.000491633,313.605,""
192125,21.8939,19.9994,0.00214022,1371.12,0.000489865,313.829,""
192694,21.8705,19.9996,0.00213114,1372.34,0.000487787,314.108,""
193145,21.8813,19.9997,0.0021236,1373.29,0.00048606,314.327,""
193656,21.8144,20,0.00211601,1374.38,0.000484324,314.575,""
194071,21.8409,19.9998,0.00210909,1375.25,0.000482739,314.775,""
194664,21.8548,19.9998,0.0020998,1376.5,0.000480614,315.061,""
195560,21.8189,19.9999,0.00208527,1378.38,0.000477288,315.49,""
196111,21.8396,19.9997,0.00207685,1379.52,0.00047536,315.753,""
196635,21.8332,19.9999,0.00206838,1380.61,0.000473421,316.001,""
197203,21.8081,19.9995,0.00205957,1381.78,0.000471405,316.27,""
197624,21.768,19.9996,0.00205309,1382.65,0.000469921,316.468,""
198154,21.822,20.0003,0.00204521,1383.73,0.000468118,316.716,""
198566,21.8037,20,0.00203866,1384.57,0.000466618,316.909,""
199025,21.8103,19.9997,0.00203141,1385.51,0.000464961,317.123,""
199604,21.7798,19.9999,0.00202222,1386.68,0.000462856,317.391,""
200003,21.7868,19.9996,0.00201656,1387.49,0.00046156,317.576,""
200619,21.7704,19.9998,0.00200735,1388.73,0.000459453,317.859,""
201133,21.7502,19.9995,0.00199951,1389.76,0.000457658,318.095,""
201631,21.7293,19.9997,0.00199186,1390.75,0.000455908,318.323,""
202195,21.7209,19.9998,0.00198393,1391.87,0.000454091,318.579,""
202692,21.7385,20.0002,0.00197656,1392.86,0.000452405,318.805,""
203221,21.7285,19.9998,0.00196844,1393.9,0.000450547,319.043,""
203739,21.7225,19.9998,0.00196109,1394.92,0.000448865,319.276,""
204306,21.722,19.9994,0.00195269,1396.03,0.000446942,319.53,""
204949,21.7091,19.9999,0.00194338,1397.28,0.000444812,319.817,""
205458,21.7123,20.0001,0.00193605,1398.27,0.000443133,320.043,""
205956,21.7055,20,0.00192895,1399.23,0.000441508,320.263,""
206330,21.6721,19.9996,0.00192344,1399.95,0.000440247,320.428,""
206945,21.7165,19.9997,0.00191436,1401.13,0.000438169,320.698,""
207564,21.6975,19.9999,0.0019054,1402.31,0.000436117,320.969,""
208052,21.705,19.9996,0.00189865,1403.24,0.000434572,321.181,""
208442,21.653,19.9998,0.00189322,1403.98,0.000433329,321.351,""
208997,21.6888,20,0.0018852,1405.03,0.000431495,321.591,""
209673,21.7236,19.9999,0.00187563,1406.3,0.000429304,321.882,""
210256,21.6941,19.9996,0.00186734,1407.39,0.000427407,322.131,""
210694,21.6643,19.9995,0.00186139,1408.21,0.000426046,322.318,""
211086,21.677,19.9997,0.00185593,1408.94,0.000424794,322.485,""
211659,21.6448,20.0001,0.00184793,1410,0.000422965,322.728,""
212274,21.6251,20.0001,0.00183938,1411.13,0.000421007,322.987,""
212776,21.6503,20.0011,0.00183248,1412.05,0.000419427,323.198,""
213432,21.6459,19.9998,0.00182327,1413.25,0.000417319,323.473,""
214020,21.6593,19.9995,0.00181531,1414.32,0.000415497,323.718,""
214566,21.6263,20.0002,0.00180763,1415.31,0.00041374,323.944,""
[...]
224025,21.5377,20.0002,0.00168312,1431.81,0.000385241,327.721,""
224857,21.5774,19.9998,0.0016724,1433.21,0.000382788,328.041,""
225767,21.5608,19.9999,0.001661,1434.73,0.000380179,328.388,""
226522,21.5562,19.9999,0.00165149,1435.98,0.000378001,328.674,""
226999,21.566,20,0.0016457,1436.76,0.000376678,328.854,""
227551,21.5567,19.9998,0.00163855,1437.67,0.00037504,329.061,""
228089,21.5517,19.9997,0.00163187,1438.55,0.000373512,329.263,""
228656,21.5488,19.9996,0.00162497,1439.47,0.000371931,329.474,""
229258,21.5575,20.0001,0.00161734,1440.45,0.000370185,329.698,""
229698,21.5473,20.0005,0.00161179,1441.16,0.000368915,329.86,""
230106,21.5436,19.9997,0.00160703,1441.81,0.000367826,330.01,""
230673,21.5339,19.9996,0.00160013,1442.73,0.000366246,330.219,""
231135,21.5347,19.9999,0.00159456,1443.46,0.000364972,330.387,""
231622,21.5267,20,0.00158858,1444.24,0.000363604,330.565,""
232399,21.5113,20.0001,0.0015792,1445.47,0.000361457,330.846,""
232987,21.5225,20.0003,0.001572,1446.4,0.000359807,331.059,""
233914,21.5411,19.9999,0.00156101,1447.85,0.000357293,331.391,""
234600,21.5165,19.9999,0.00155267,1448.91,0.000355384,331.635,""
235164,21.5235,19.9997,0.00154615,1449.79,0.000353892,331.835,""
235761,21.5171,20,0.00153904,1450.71,0.000352263,332.046,""
236462,21.5456,19.9998,0.00153066,1451.79,0.000350346,332.292,""
237024,21.5088,19.9996,0.00152419,1452.64,0.000348864,332.489,""
237567,21.5555,19.9999,0.00151775,1453.47,0.000347391,332.678,""
238086,21.5062,19.9996,0.00151178,1454.26,0.000346024,332.858,""
238703,21.4762,20.0001,0.00150473,1455.19,0.00034441,333.071,""
239154,21.5015,19.9997,0.00149956,1455.86,0.000343227,333.226,""
239673,21.4811,19.9997,0.0014936,1456.64,0.000341863,333.404,""
240601,21.4917,20,0.001483,1458.02,0.000339436,333.72,""
241492,21.4803,19.9999,0.00147297,1459.34,0.00033714,334.021,""
242212,21.4868,20.0002,0.00146488,1460.4,0.00033529,334.263,""
242709,21.5134,19.9998,0.00145907,1461.12,0.000333959,334.43,""
243510,21.535,19.9999,0.00145001,1462.29,0.000331886,334.697,""
244007,21.4716,19.9998,0.00144476,1463.01,0.000330684,334.861,""
244771,21.4771,19.9996,0.00143645,1464.11,0.000328783,335.113,""
245411,21.4695,19.9996,0.00142921,1465.02,0.000327124,335.323,""
246191,21.4668,19.9998,0.00142059,1466.14,0.000325152,335.577,""
246866,21.4478,20,0.00141368,1467.09,0.000323571,335.796,""
247349,21.4921,19.9998,0.00140834,1467.78,0.000322348,335.952,""
247878,21.4715,19.9999,0.00140256,1468.52,0.000321025,336.122,""
248496,21.459,19.9998,0.0013965,1469.38,0.000319638,336.32,""
248903,21.4647,19.9999,0.00139177,1469.95,0.000318557,336.45,""
249851,21.5008,19.9999,0.00138199,1471.27,0.000316316,336.751,""
250471,21.5258,19.9998,0.00137542,1472.12,0.000314814,336.947,""
251052,21.5917,20,0.00136946,1472.92,0.000313449,337.129,""
251616,21.5766,20.0004,0.00133309,1473.68,0.000305124,337.304,""
252181,21.6117,19.9998,0.00135197,1474.44,0.000309446,337.478,""
252671,21.6332,19.9999,0.00135146,1475.1,0.00030933,337.63,""
253200,21.6111,20,0.00134703,1475.82,0.000308316,337.793,""
253738,21.7528,20,0.0013419,1476.54,0.000307141,337.959,""
254396,21.6456,20.0001,0.00133532,1477.42,0.000305634,338.16,""
255062,21.6416,19.9998,0.00132864,1478.31,0.000304105,338.363,""
255498,21.6772,20,0.00132391,1478.89,0.000303024,338.496,""
256033,21.6978,20.0001,0.00131867,1479.59,0.000301824,338.657,""
256625,21.7417,19.9998,0.00131277,1480.37,0.000300474,338.836,""
257260,21.5556,20.0002,0.0013064,1481.21,0.000299017,339.026,""
257813,21.7018,19.9999,0.00130109,1481.93,0.000297801,339.191,""
258258,21.7575,19.9998,0.00129681,1482.51,0.000296822,339.324,""
258947,21.7016,19.9997,0.00129,1483.4,0.000295262,339.528,""
259461,21.6876,19.9999,0.00128488,1484.06,0.000294091,339.679,""
260061,21.6861,19.9998,0.00127907,1484.83,0.00029276,339.855,""
260635,21.7246,19.9999,0.00127348,1485.56,0.000291482,340.023,""
261463,21.6981,19.9998,0.00126586,1486.61,0.000289737,340.263,""
262043,21.6984,19.9998,0.00126027,1487.34,0.000288458,340.431,""
262648,21.657,19.9998,0.00125482,1488.1,0.00028721,340.605,""
263026,21.6958,20.0002,0.00125115,1488.58,0.00028637,340.714,""
263421,21.63,19.9997,0.00124747,1489.07,0.000285527,340.827,""
264145,21.5679,19.9998,0.00124062,1489.97,0.000283959,341.033,""
264796,21.5636,20,0.0012346,1490.78,0.000282581,341.217,""
265310,21.5586,20.0001,0.00122974,1491.41,0.000281468,341.362,""
265791,21.5836,19.9997,0.00122527,1492,0.000280447,341.497,""
266332,21.5594,19.9997,0.00122019,1492.66,0.000279284,341.649,""
267025,21.5389,19.9999,0.00121395,1493.51,0.000277855,341.842,""
267637,21.5475,20,0.00120842,1494.25,0.00027659,342.011,""
268126,21.5326,19.9998,0.00120461,1494.84,0.000275718,342.146,""
268872,21.5046,19.9995,0.00119734,1495.73,0.000274054,342.352,""
269491,21.4842,19.9996,0.00119197,1496.47,0.000272823,342.521,""
269863,21.4833,20.0002,0.00118842,1496.92,0.000272012,342.622,""
270621,21.4531,19.9995,0.00118215,1497.81,0.000270576,342.828,""
271282,21.4777,19.9999,0.00117643,1498.59,0.000269267,343.006,""
271829,21.4414,20.0001,0.00117133,1499.24,0.000268101,343.153,""
272425,21.4483,20.0002,0.00116626,1499.93,0.00026694,343.312,""
273122,21.4521,20,0.00116,1500.74,0.000265506,343.498,""
274089,21.451,19.9998,0.00115178,1501.86,0.000263625,343.754,""
274860,21.4335,19.9998,0.00114513,1502.75,0.000262104,343.956,""
275519,21.4205,20,0.00113969,1503.5,0.000260857,344.129,""
276082,21.4566,20.0003,0.00113487,1504.14,0.000259756,344.275,""
276789,21.4404,19.9999,0.00112909,1504.94,0.000258431,344.459,""
277413,21.4322,19.9998,0.00112394,1505.64,0.000257252,344.619,""
277982,21.4209,20,0.00111927,1506.28,0.000256185,344.765,""
278654,21.4251,20.0001,0.00111395,1507.03,0.000254967,344.937,""
279490,21.4342,20,0.00110725,1507.96,0.000253433,345.15,""
280238,21.4153,19.9998,0.00110095,1508.79,0.000251991,345.339,""
280971,21.4187,19.9998,0.0010955,1509.59,0.000250744,345.523,""
281599,21.3916,20,0.00109065,1510.28,0.000249633,345.68,""
282146,21.4377,20.0001,0.00108626,1510.87,0.00024863,345.817,""
282818,21.4125,20.0001,0.00108113,1511.6,0.000247454,345.983,""
283378,21.4032,19.9998,0.00107671,1512.2,0.000246444,346.121,""
283962,21.4151,20.0001,0.00107213,1512.83,0.000245394,346.265,""
284775,21.4208,20.0003,0.00106619,1513.7,0.000244035,346.464,""
285329,21.4082,19.9996,0.00106173,1514.29,0.000243015,346.599,""
286204,21.391,20.0002,0.00105508,1515.22,0.000241493,346.811,""
286710,21.4272,19.9998,0.00105135,1515.75,0.000240638,346.933,""
287400,21.3988,19.9997,0.0010465,1516.47,0.000239529,347.099,""
288194,21.4054,20.0001,0.00104044,1517.3,0.000238141,347.288,""
288906,21.4024,19.9999,0.00103537,1518.04,0.000236982,347.457,""
289826,21.3907,19.9999,0.00102852,1518.99,0.000235413,347.675,""
290575,21.3913,19.9998,0.00102325,1519.76,0.000234207,347.85,""
291350,21.3843,19.9998,0.00101768,1520.55,0.000232932,348.031,""
291971,21.3817,19.9998,0.00101312,1521.18,0.000231889,348.176,""
292536,21.4081,19.9998,0.00100879,1521.75,0.000230898,348.306,""
293186,21.374,20,0.00100452,1522.41,0.00022992,348.456,""
293813,21.3781,20.0001,0.00100016,1523.03,0.000228923,348.6,""
294219,21.4173,19.9998,0.000997096,1523.44,0.000228221,348.693,""
294787,21.3829,19.9999,0.000993336,1524,0.00022736,348.822,""
295548,21.3981,19.9998,0.00098812,1524.76,0.000226166,348.995,""
296224,21.3972,20.0001,0.000983431,1525.42,0.000225093,349.147,""
296906,21.3852,19.9999,0.000978477,1526.09,0.000223959,349.301,""
297678,21.417,19.9999,0.000973345,1526.85,0.000222784,349.473,""
298518,21.3634,19.9997,0.000967576,1527.66,0.000221464,349.659,""
299551,21.3914,19.9999,0.00096113,1528.66,0.000219988,349.887,""
300335,21.3728,19.9996,0.000955736,1529.41,0.000218754,350.059,""
300882,21.373,20.0001,0.000952128,1529.93,0.000217928,350.179,""
301481,21.3614,20,0.000948134,1530.5,0.000217014,350.309,""
302130,21.3915,19.9998,0.000943708,1531.11,0.000216001,350.45,""
302740,21.3705,19.9994,0.000939706,1531.69,0.000215085,350.581,""
303571,21.3435,20.0001,0.000934534,1532.47,0.000213901,350.759,""
304117,21.3601,19.9996,0.00093096,1532.98,0.000213083,350.876,""
304704,21.3727,20.0001,0.000927189,1533.52,0.00021222,351.001,""
305529,21.3423,19.9999,0.000922126,1534.29,0.000211061,351.175,""
306218,21.3726,19.9997,0.000917648,1534.92,0.000210036,351.32,""
307116,21.3836,20,0.000911966,1535.74,0.000208736,351.509,""
307612,21.3334,19.9998,0.000909158,1536.19,0.000208093,351.612,""
308276,21.3405,19.9999,0.000905028,1536.79,0.000207148,351.75,""
308932,21.3343,19.9998,0.000901181,1537.39,0.000206267,351.885,""
309660,21.3601,19.9999,0.000896717,1538.04,0.000205245,352.035,""
310161,21.3514,19.9997,0.000893298,1538.49,0.000204463,352.138,""
311150,21.333,20,0.000887749,1539.37,0.000203193,352.339,""
312153,21.352,19.9998,0.000881902,1540.26,0.000201854,352.543,""
312703,21.322,19.9998,0.000878702,1540.74,0.000201122,352.653,""
313119,21.3402,20,0.000876383,1541.11,0.000200591,352.737,""
313618,21.3227,19.9997,0.000873532,1541.54,0.000199939,352.837,""
314260,21.321,19.9997,0.000869587,1542.1,0.000199036,352.965,""
314744,21.3175,20.0002,0.000866801,1542.52,0.000198398,353.061,""
315354,21.3005,20.0002,0.000863527,1543.05,0.000197649,353.182,""
315953,21.3325,19.9997,0.000860011,1543.57,0.000196844,353.3,""
316563,21.29,19.9998,0.000856575,1544.09,0.000196057,353.42,""
317268,21.2994,19.9995,0.000852829,1544.69,0.0001952,353.558,""
317832,21.2988,20.0002,0.000849794,1545.17,0.000194505,353.668,""
318351,21.309,19.9999,0.000846952,1545.61,0.000193855,353.768,""
318782,21.2878,19.9999,0.000844471,1545.98,0.000193287,353.852,""
319263,21.2974,20.0002,0.000841937,1546.38,0.000192707,353.945,""
319728,21.2962,20.0002,0.000839206,1546.78,0.000192082,354.034,""
320367,21.306,19.9998,0.00083566,1547.31,0.00019127,354.157,""
320899,21.3124,19.9997,0.000832987,1547.75,0.000190658,354.258,""
321582,21.2919,19.9997,0.0008292,1548.32,0.000189792,354.388,""
322301,21.2771,19.9998,0.000825473,1548.92,0.000188939,354.524,""
322905,21.2735,19.9999,0.00082231,1549.41,0.000188215,354.638,""
323541,21.2826,19.9996,0.000818792,1549.94,0.00018741,354.758,""
324253,21.2817,19.9998,0.000815156,1550.52,0.000186577,354.891,""
324927,21.2821,19.9997,0.00081193,1551.07,0.000185839,355.016,""
325541,21.2767,19.9999,0.000808389,1551.56,0.000185028,355.13,""
326123,21.2719,19.9997,0.000805502,1552.03,0.000184368,355.238,""
326630,21.2466,19.9997,0.000803192,1552.44,0.000183839,355.331,""
327202,21.2579,19.9997,0.000800269,1552.9,0.00018317,355.436,""
327687,21.2707,20.0001,0.000797744,1553.29,0.000182592,355.525,""
328167,21.276,20.001,0.000795227,1553.67,0.000182016,355.612,""
328628,21.2752,19.9997,0.000793044,1554.04,0.000181516,355.696,""
329169,21.2494,19.9999,0.000790444,1554.46,0.000180921,355.794,""
329728,21.2898,19.9999,0.000787563,1554.9,0.000180262,355.895,""
330312,21.2645,19.9998,0.000784581,1555.36,0.000179579,356,""
330851,21.2808,19.9997,0.0007817,1555.79,0.00017892,356.097,""
331252,21.2594,20.0003,0.000780013,1556.1,0.000178534,356.168,""
331698,21.2645,20.0003,0.000777835,1556.45,0.000178035,356.248,""
332224,21.2906,19.9999,0.000775388,1556.85,0.000177475,356.341,""
332647,21.2932,19.9996,0.000773219,1557.18,0.000176979,356.416,""
333261,21.292,19.9999,0.000770359,1557.66,0.000176324,356.525,""
333832,21.2872,19.9998,0.000767671,1558.1,0.000175709,356.625,""
334610,21.2812,19.9997,0.000763885,1558.69,0.000174842,356.762,""
335053,21.2827,19.9998,0.000761892,1559.03,0.000174386,356.839,""
335749,21.2751,20,0.000758382,1559.56,0.000173582,356.96,""
336381,21.295,19.9999,0.000755513,1560.04,0.000172926,357.069,""
336804,21.3151,19.9996,0.000753712,1560.36,0.000172514,357.142,""
337400,21.2838,19.9997,0.000750798,1560.8,0.000171847,357.245,""
337953,21.2844,19.9996,0.000748056,1561.22,0.000171219,357.34,""
338422,21.2962,19.9997,0.000746077,1561.57,0.000170766,357.42,""
339085,21.28,19.9997,0.000743069,1562.06,0.000170077,357.533,""
339607,21.2878,19.9998,0.000740698,1562.45,0.000169535,357.622,""
340128,21.2897,19.9999,0.000738226,1562.84,0.000168969,357.71,""
340672,21.2798,19.9998,0.000735942,1563.24,0.000168446,357.802,""
341362,21.2801,19.9999,0.00073296,1563.74,0.000167764,357.918,""
342023,21.2984,19.9996,0.000729999,1564.23,0.000167086,358.029,""
342424,21.2958,19.9995,0.000727819,1564.52,0.000166587,358.095,""
343193,21.3041,19.9998,0.00072485,1565.08,0.000165907,358.223,""
343796,21.3063,19.9998,0.000721931,1565.51,0.000165239,358.323,""
344552,21.3177,19.9999,0.000718678,1566.06,0.000164495,358.448,""
344935,21.319,19.9997,0.000717074,1566.33,0.000164128,358.511,""
345507,21.2899,19.9999,0.000714862,1566.74,0.000163621,358.604,""
346052,21.2826,19.9996,0.000712581,1567.13,0.000163099,358.693,""
346669,21.3004,19.9998,0.000709649,1567.57,0.000162428,358.794,""
347102,21.3017,20.0001,0.000707941,1567.88,0.000162037,358.864,""
347709,21.3082,19.9997,0.000705408,1568.31,0.000161458,358.962,""
348225,21.3119,20,0.000703372,1568.67,0.000160992,359.045,""
348791,21.2765,20.0002,0.000700958,1569.07,0.000160439,359.136,""
349372,21.3134,20.0001,0.000698644,1569.47,0.000159909,359.229,""
349924,21.3055,20,0.000696055,1569.86,0.000159317,359.318,""
350650,21.2938,19.9998,0.000693027,1570.36,0.000158624,359.433,""
351527,21.2989,19.9998,0.000689487,1570.97,0.000157813,359.572,""
352070,21.2825,19.9999,0.000687287,1571.34,0.00015731,359.657,""
352675,21.3025,19.9999,0.000684866,1571.76,0.000156756,359.752,""
353233,21.2792,19.9995,0.000682597,1572.14,0.000156236,359.84,""
353829,21.2992,20,0.000680331,1572.55,0.000155718,359.933,""
354483,21.297,20.0002,0.000678116,1572.99,0.000155211,360.034,""
355077,21.3155,19.9998,0.000675964,1573.39,0.000154718,360.126,""
355514,21.3042,19.9999,0.000674097,1573.69,0.000154291,360.194,""
356268,21.312,20,0.00067099,1574.19,0.00015358,360.31,""
356766,21.3061,20,0.000669207,1574.53,0.000153172,360.386,""
357347,21.3063,19.9992,0.000667062,1574.92,0.000152681,360.475,""
357986,21.3172,19.9999,0.000664557,1575.34,0.000152107,360.573,""
358569,21.3239,19.9997,0.000662484,1575.73,0.000151633,360.661,""
359297,21.3388,19.9996,0.000659755,1576.21,0.000151008,360.771,""
359975,21.3389,20.0001,0.000657228,1576.66,0.00015043,360.873,""
360398,21.3168,19.9997,0.000655733,1576.93,0.000150088,360.937,""
360979,21.3242,19.9997,0.000653214,1577.31,0.000149511,361.024,""
361591,21.3144,19.9998,0.000651042,1577.71,0.000149014,361.115,""
362209,21.3273,19.9998,0.000648742,1578.11,0.000148488,361.207,""
362637,21.305,19.9996,0.000647333,1578.39,0.000148165,361.271,""
363390,21.3212,20.0001,0.000644452,1578.88,0.000147506,361.382,""
364090,21.3066,19.9999,0.000642255,1579.33,0.000147003,361.485,""
364724,21.2935,20,0.000640084,1579.73,0.000146506,361.578,""
365183,21.3024,20.0001,0.000638354,1580.03,0.00014611,361.645,""
365693,21.3379,19.9998,0.000636473,1580.35,0.000145679,361.72,""
366425,21.3462,19.9995,0.00063371,1580.82,0.000145047,361.826,""
367151,21.3144,20,0.000631146,1581.28,0.00014446,361.931,""
367738,21.3321,19.9999,0.000629007,1581.65,0.00014397,362.016,""
368246,21.2884,19.9998,0.000627435,1581.97,0.000143611,362.089,""
368888,21.3123,19.9997,0.000624835,1582.37,0.000143016,362.181,""
369440,21.2827,19.9999,0.000623455,1582.71,0.0001427,362.26,""
370011,21.3091,20,0.000621205,1583.07,0.000142185,362.341,""
370523,21.3013,20.0001,0.000619374,1583.39,0.000141766,362.414,""
371034,21.3327,20.0005,0.00061772,1583.7,0.000141387,362.486,""
371705,21.3175,19.9998,0.000615493,1584.12,0.000140877,362.581,""
372194,21.3073,20.0004,0.000613892,1584.42,0.000140511,362.65,""
372741,21.3214,19.9997,0.000611706,1584.75,0.000140011,362.726,""
373411,21.3048,19.9998,0.000609545,1585.16,0.000139516,362.82,""
374005,21.3002,19.9998,0.000607497,1585.52,0.000139047,362.903,""
374609,21.3051,20.0003,0.000605689,1585.89,0.000138633,362.987,""
375305,21.2945,19.9998,0.00060355,1586.31,0.000138144,363.083,""
376225,21.3069,19.9997,0.000600426,1586.86,0.000137429,363.21,""
376816,21.2682,19.9999,0.000598455,1587.22,0.000136978,363.291,""
377415,21.2887,19.9999,0.000596601,1587.58,0.000136553,363.373,""
377903,21.2802,19.9995,0.000594977,1587.87,0.000136181,363.439,""
378493,21.2906,19.9995,0.000592892,1588.22,0.000135704,363.519,""
379061,21.3097,19.9998,0.000591117,1588.55,0.000135298,363.596,""
379620,21.2939,20,0.000589071,1588.88,0.00013483,363.672,""
380205,21.2986,19.9998,0.000587574,1589.23,0.000134487,363.751,""
380745,21.2841,20,0.000585886,1589.54,0.000134101,363.823,""
381234,21.2741,19.9998,0.000584058,1589.83,0.000133682,363.889,""
381739,21.269,20,0.000582624,1590.12,0.000133354,363.956,""
382332,21.2278,20,0.000580736,1590.47,0.000132922,364.035,""
383009,21.2727,19.9997,0.000578655,1590.86,0.000132446,364.125,""
383606,21.2724,19.9999,0.000577049,1591.21,0.000132078,364.204,""
384241,21.259,19.9996,0.000575384,1591.57,0.000131697,364.288,""
384765,21.265,20.0001,0.000573626,1591.87,0.000131295,364.356,""
385305,21.2818,19.9999,0.000572183,1592.18,0.000130964,364.427,""
386058,21.2493,19.9999,0.000569894,1592.61,0.00013044,364.526,""
386583,21.2629,19.9998,0.000568424,1592.91,0.000130104,364.594,""
387388,21.2609,20.0002,0.000565903,1593.37,0.000129527,364.698,""
387999,21.2204,19.9998,0.000563989,1593.71,0.000129089,364.778,""
388801,21.2769,19.9996,0.000562031,1594.16,0.000128641,364.881,""
389693,21.249,20.0003,0.000559205,1594.66,0.000127994,364.995,""
390154,21.2544,20.0001,0.000557752,1594.92,0.000127661,365.054,""
390825,21.2562,20,0.000555875,1595.3,0.000127232,365.14,""
391584,21.2495,20.0001,0.000553688,1595.72,0.000126731,365.236,""
392035,21.216,19.9997,0.000552365,1595.97,0.000126428,365.293,""
392650,21.2439,19.9997,0.000550581,1596.31,0.00012602,365.371,""
393159,21.2537,19.9999,0.000549117,1596.59,0.000125685,365.435,""
393851,21.2648,19.9999,0.000547259,1596.96,0.000125259,365.522,""
394456,21.252,19.9996,0.000545863,1597.3,0.00012494,365.597,""
395058,21.2521,19.9998,0.000544033,1597.62,0.000124521,365.673,""
395856,21.2552,19.9999,0.000541984,1598.06,0.000124052,365.772,""
396407,21.2467,20.0002,0.000540307,1598.35,0.000123668,365.84,""
396852,21.2291,19.9996,0.000538823,1598.6,0.000123329,365.895,""
397341,21.2535,19.9996,0.000537823,1598.86,0.0001231,365.955,""
398008,21.2463,19.9999,0.000536279,1599.22,0.000122746,366.037,""
398700,21.2412,20.0001,0.00053412,1599.59,0.000122252,366.122,""
399238,21.222,19.9999,0.000532869,1599.87,0.000121966,366.188,""
399636,21.2431,19.9998,0.000531995,1600.09,0.000121766,366.236,""
400293,21.2466,19.9997,0.000530333,1600.43,0.000121385,366.316,""
401296,21.2172,20,0.000527576,1600.97,0.000120754,366.437,""
401997,21.2637,20.0003,0.000525969,1601.33,0.000120386,366.522,""
402605,21.2966,19.9999,0.000524061,1601.65,0.00011995,366.595,""
403143,21.2784,19.9998,0.000522634,1601.93,0.000119623,366.659,""
403647,21.2476,20,0.000521235,1602.2,0.000119303,366.72,""
404531,21.2405,19.9997,0.000518826,1602.66,0.000118752,366.825,""
405112,21.2355,20,0.000517328,1602.96,0.000118409,366.894,""
405807,21.2393,19.9999,0.000515619,1603.32,0.000118018,366.976,""
406335,21.2818,19.9999,0.000514404,1603.59,0.00011774,367.038,""
406919,21.2526,20,0.00051337,1603.89,0.000117503,367.107,""
407551,21.255,19.9999,0.000511315,1604.21,0.000117033,367.181,""
408196,21.2651,19.9998,0.000509506,1604.54,0.000116618,367.256,""
408797,21.2433,20.0005,0.00050858,1604.85,0.000116406,367.326,""
409484,21.2887,20.0002,0.000506539,1605.2,0.000115939,367.406,""
410015,21.2825,19.9998,0.000505149,1605.47,0.000115621,367.468,""
410568,21.2686,19.9999,0.00050412,1605.74,0.000115386,367.531,""
410974,21.3496,20.0002,0.000503292,1605.95,0.000115196,367.578,""
411627,21.3551,19.9998,0.00050123,1606.28,0.000114724,367.653,""
412084,21.4342,20,0.000500234,1606.51,0.000114496,367.706,""
412704,21.5051,20,0.000499125,1606.82,0.000114242,367.777,""
412939,21.479,20.0002,0.000498649,1606.93,0.000114134,367.803,""
412939,21.479,20.0002,NaN,NaN,NaN,NaN,"Ampoule removed"
412943,21.4783,20.0002,NaN,NaN,NaN,NaN,""