File: TAInstCalorimetry/DATA/calorimetry_data_5.csv
"Time","Temperature [AmbientT(Therm3T)]","Temperature [Temperature]","Heat flow [Signal]","Heat [Signal]","Normalized heat flow [Signal]","Normalized heat [Signal]","Time markers"
-2249.76,24.5374,19.9996,-1.49987e-06,NaN,-3.49865e-07,NaN,""
-2234.15,24.5,19.9999,-1.52302e-06,NaN,-3.55265e-07,NaN,""
-2225.12,24.5027,19.9998,-1.50327e-06,NaN,-3.50658e-07,NaN,""
-2204.04,24.509,19.9997,-1.38696e-06,NaN,-3.23526e-07,NaN,""
-2180.3,24.5151,19.9996,-1.47879e-06,NaN,-3.44947e-07,NaN,""
-2129.48,24.5107,19.9999,-1.6754e-06,NaN,-3.9081e-07,NaN,""
-2116.76,24.5096,19.9999,-1.74205e-06,NaN,-4.06357e-07,NaN,""
-2104.03,24.5085,19.9998,-1.8087e-06,NaN,-4.21903e-07,NaN,""
-2090.49,24.5159,19.9997,-1.59192e-06,NaN,-3.71336e-07,NaN,""
-2076.96,24.5283,19.9998,-1.37514e-06,NaN,-3.20769e-07,NaN,""
-2054.26,24.549,20.0002,-1.5952e-06,NaN,-3.72101e-07,NaN,""
-2050.38,24.5525,20.0002,-1.57361e-06,NaN,-3.67066e-07,NaN,""
-2043.63,24.5087,20.0001,-1.53601e-06,NaN,-3.58296e-07,NaN,""
-2039.85,24.5033,20.0001,-1.56471e-06,NaN,-3.64989e-07,NaN,""
-2027.76,24.5029,20,-1.65648e-06,NaN,-3.86397e-07,NaN,""
-2015.54,24.5025,19.9998,-1.37228e-06,NaN,-3.20102e-07,NaN,""
-2008.82,24.5023,19.9998,-1.33873e-06,NaN,-3.12277e-07,NaN,""
-1992.36,24.5018,19.9998,-1.3231e-06,NaN,-3.08632e-07,NaN,""
-1969.49,24.501,19.9998,-9.40192e-07,NaN,-2.19312e-07,NaN,""
-1945.91,24.4872,19.9998,-9.0777e-07,NaN,-2.11749e-07,NaN,""
-1922.44,24.467,19.9999,-8.75507e-07,NaN,-2.04224e-07,NaN,""
-1922.32,24.4669,19.9999,-8.75348e-07,NaN,-2.04187e-07,NaN,""
-1910.88,24.4684,19.9999,-6.317e-07,NaN,-1.47353e-07,NaN,""
-1899.43,24.4931,20,-3.88053e-07,NaN,-9.05185e-08,NaN,""
-1890.34,24.5126,20,-3.41855e-07,NaN,-7.97423e-08,NaN,""
-1881.26,24.5051,19.9999,-2.95658e-07,NaN,-6.89661e-08,NaN,""
-1866.13,24.4773,19.9998,1.35367e-08,NaN,3.15762e-09,NaN,""
-1858.01,24.5238,19.9997,1.79633e-07,NaN,4.19018e-08,NaN,""
-1845.81,24.5237,19.9996,4.16022e-07,NaN,9.70426e-08,NaN,""
-1835.21,24.5235,19.9997,6.11634e-07,NaN,1.42672e-07,NaN,""
-1818.13,24.5285,19.9998,6.09021e-07,NaN,1.42062e-07,NaN,""
-1784.95,24.5581,19.9999,6.03947e-07,NaN,1.40879e-07,NaN,""
-1765.13,24.5267,20,6.00916e-07,NaN,1.40172e-07,NaN,""
-1754.59,24.5235,20.0001,6.26935e-07,NaN,1.46241e-07,NaN,""
-1724.28,24.5237,20.0002,7.10484e-07,NaN,1.6573e-07,NaN,""
-1684.58,24.5241,19.9997,8.19871e-07,NaN,1.91246e-07,NaN,""
-1680.45,24.5241,19.9997,8.31241e-07,NaN,1.93898e-07,NaN,""
-1652.05,24.5243,19.9999,4.96924e-07,NaN,1.15914e-07,NaN,""
-1636.81,24.5245,20,2.17298e-07,NaN,5.06876e-08,NaN,""
-1626.22,24.5246,19.9999,9.05067e-08,NaN,2.11119e-08,NaN,""
-1615.46,24.5247,19.9999,4.95552e-08,NaN,1.15594e-08,NaN,""
-1604.92,24.525,19.9998,-9.49843e-08,NaN,-2.21564e-08,NaN,""
-1592.65,24.5254,19.9998,-4.05463e-07,NaN,-9.45797e-08,NaN,""
-1580.37,24.5258,19.9999,-6.38889e-07,NaN,-1.49029e-07,NaN,""
-1552.76,24.5266,20.0001,-8.99489e-07,NaN,-2.09818e-07,NaN,""
-1538.47,24.5271,19.9998,-1.13283e-06,NaN,-2.64247e-07,NaN,""
-1524.18,24.5275,19.9996,-1.37809e-06,NaN,-3.21458e-07,NaN,""
-1505.44,24.5281,19.9995,-1.50346e-06,NaN,-3.50702e-07,NaN,""
-1485.83,24.5288,19.9994,-1.37513e-06,NaN,-3.20767e-07,NaN,""
-1470.77,24.5292,19.9997,-1.58234e-06,NaN,-3.69101e-07,NaN,""
-1461.94,24.5295,19.9999,-1.70381e-06,NaN,-3.97436e-07,NaN,""
-1446.88,24.53,19.9999,-1.70676e-06,NaN,-3.98124e-07,NaN,""
-1428.57,24.5306,19.9999,-1.5351e-06,NaN,-3.58081e-07,NaN,""
-1404.09,24.5313,19.9999,-1.5295e-06,NaN,-3.56775e-07,NaN,""
-1394.58,24.5316,19.9999,-1.41997e-06,NaN,-3.31226e-07,NaN,""
-1376.79,24.5233,20,-1.21508e-06,NaN,-2.83434e-07,NaN,""
-1359,24.515,20,-1.07006e-06,NaN,-2.49607e-07,NaN,""
-1316.1,24.4949,20.0001,-8.46074e-07,NaN,-1.97358e-07,NaN,""
-1316.07,24.4949,20.0001,-8.4543e-07,NaN,-1.97208e-07,NaN,""
-1300.75,24.5253,20.0001,-5.29716e-07,NaN,-1.23563e-07,NaN,""
-1293.04,24.4954,20.0001,-3.70822e-07,NaN,-8.64992e-08,NaN,""
-1286.59,24.4765,20.0001,-2.81459e-07,NaN,-6.5654e-08,NaN,""
-1248.22,24.5425,20,4.89374e-08,NaN,1.14153e-08,NaN,""
-1221.9,24.5344,19.9999,3.51171e-07,NaN,8.19152e-08,NaN,""
-1202.97,24.5286,19.9999,6.48675e-07,NaN,1.51312e-07,NaN,""
-1184.05,24.5355,20,7.89604e-07,NaN,1.84186e-07,NaN,""
-1161.28,24.5538,20,8.12121e-07,NaN,1.89438e-07,NaN,""
-1141.94,24.5693,19.9999,7.14009e-07,NaN,1.66552e-07,NaN,""
-1126.7,24.5487,19.9998,6.01926e-07,NaN,1.40407e-07,NaN,""
-1125.51,24.5455,19.9998,5.93181e-07,NaN,1.38367e-07,NaN,""
-1114.01,24.5148,19.9998,7.67817e-07,NaN,1.79104e-07,NaN,""
-1099.94,24.502,19.9997,7.88837e-07,NaN,1.84007e-07,NaN,""
-1077.4,24.5114,19.9997,8.22532e-07,NaN,1.91867e-07,NaN,""
-1054.86,24.5207,19.9998,7.71907e-07,NaN,1.80058e-07,NaN,""
-1023.81,24.5249,19.9999,6.32124e-07,NaN,1.47451e-07,NaN,""
-992.764,24.5194,20,6.59968e-07,NaN,1.53946e-07,NaN,""
-972.927,24.5159,19.9999,8.07147e-07,NaN,1.88278e-07,NaN,""
-946.98,24.5113,19.9998,4.12223e-07,NaN,9.61566e-08,NaN,""
-931.488,24.5188,19.9998,4.02497e-07,NaN,9.38878e-08,NaN,""
-902.647,24.5428,19.9999,5.87162e-07,NaN,1.36963e-07,NaN,""
-874.246,24.5664,19.9999,7.34865e-07,NaN,1.71417e-07,NaN,""
-850.94,24.5555,19.9999,7.48921e-07,NaN,1.74696e-07,NaN,""
-843.045,24.5518,19.9998,6.23984e-07,NaN,1.45553e-07,NaN,""
-819.416,24.5407,19.9995,9.44195e-07,NaN,2.20246e-07,NaN,""
-809.148,24.5392,19.9994,9.70088e-07,NaN,2.26286e-07,NaN,""
-804.756,24.5395,19.9994,9.81166e-07,NaN,2.2887e-07,NaN,""
-796.675,24.54,19.9996,9.41651e-07,NaN,2.19653e-07,NaN,""
-790.256,24.5404,19.9997,7.83472e-07,NaN,1.82755e-07,NaN,""
-782.175,24.5409,19.9998,8.9754e-07,NaN,2.09363e-07,NaN,""
-771.388,24.5416,19.9998,1.04982e-06,NaN,2.44885e-07,NaN,""
-745.056,24.5432,19.9998,1.05766e-06,NaN,2.46713e-07,NaN,""
-729.384,24.5442,19.9998,1.20166e-06,NaN,2.80304e-07,NaN,""
-715.039,24.5451,19.9998,1.31422e-06,NaN,3.0656e-07,NaN,""
-712.474,24.5453,19.9998,1.30055e-06,NaN,3.0337e-07,NaN,""
-693.506,24.6054,19.9997,1.19938e-06,NaN,2.79772e-07,NaN,""
-667.158,24.5533,19.9997,1.05887e-06,NaN,2.46995e-07,NaN,""
-651.504,24.5489,19.9996,9.26747e-07,NaN,2.16176e-07,NaN,""
-635.756,24.5569,19.9996,7.93836e-07,NaN,1.85173e-07,NaN,""
-618.08,24.5658,20.0001,6.44654e-07,NaN,1.50374e-07,NaN,""
-605.642,24.569,20.0003,5.39683e-07,NaN,1.25888e-07,NaN,""
-593.205,24.5675,20.0005,4.68721e-07,NaN,1.09335e-07,NaN,""
-560.781,24.5637,19.9999,7.29707e-07,NaN,1.70214e-07,NaN,""
-551.518,24.527,19.9998,8.04264e-07,NaN,1.87605e-07,NaN,""
-542.256,24.4903,19.9998,8.78821e-07,NaN,2.04997e-07,NaN,""
-524.261,24.519,19.9996,1.10799e-06,NaN,2.58453e-07,NaN,""
-506.267,24.5477,19.9996,1.3372e-06,NaN,3.1192e-07,NaN,""
-491.938,24.55,19.9998,1.35457e-06,NaN,3.15972e-07,NaN,""
-480.856,24.5518,19.9998,1.29914e-06,NaN,3.03041e-07,NaN,""
-469.774,24.5536,19.9996,1.43104e-06,NaN,3.33809e-07,NaN,""
-461.551,24.5549,19.9995,1.54079e-06,NaN,3.5941e-07,NaN,""
-456.11,24.5557,19.9995,1.55007e-06,NaN,3.61574e-07,NaN,""
-451.756,24.5564,19.9995,1.5575e-06,NaN,3.63307e-07,NaN,""
-450.756,24.5566,19.9995,1.4142e-05,NaN,3.29881e-06,NaN,""
-449.756,24.5568,19.9995,7.89289e-05,NaN,1.84112e-05,NaN,""
-427.158,24.5589,19.9998,NaN,NaN,NaN,NaN,""
-404.56,24.5482,20,NaN,NaN,NaN,NaN,""
-360.974,24.5275,20,NaN,NaN,NaN,NaN,""
-329.044,24.5402,19.9999,NaN,NaN,NaN,NaN,""
-296.404,24.5531,19.9997,NaN,NaN,NaN,NaN,""
-290.83,24.5549,19.9995,NaN,NaN,NaN,NaN,""
-285.256,24.5539,19.9992,NaN,NaN,NaN,NaN,""
-247.148,24.547,19.9997,NaN,NaN,NaN,NaN,""
-222.724,24.5426,20.0002,NaN,NaN,NaN,NaN,""
-188.931,24.5365,19.9997,NaN,NaN,NaN,NaN,""
-166.326,24.5325,19.9993,NaN,NaN,NaN,NaN,""
-163.549,24.532,19.9994,NaN,NaN,NaN,NaN,""
-139.769,24.4592,20,NaN,NaN,NaN,NaN,""
-124.609,24.4957,20,NaN,NaN,NaN,NaN,""
-108.193,24.6032,19.9999,NaN,NaN,NaN,NaN,""
-84.9235,24.5739,19.9999,NaN,NaN,NaN,NaN,""
-58.4743,24.6077,19.9999,NaN,NaN,NaN,NaN,""
-13.6315,24.5472,19.9998,NaN,NaN,NaN,NaN,""
26.5365,24.5895,19.9998,NaN,NaN,NaN,NaN,""
66.7045,24.6319,19.9997,NaN,NaN,NaN,NaN,""
105.416,24.6062,19.9997,NaN,NaN,NaN,NaN,""
127.494,24.6621,19.9998,NaN,NaN,NaN,NaN,""
149.573,24.7179,19.9998,NaN,NaN,NaN,NaN,""
170.903,24.6705,20,NaN,NaN,NaN,NaN,""
180.143,24.6499,20.0002,NaN,NaN,NaN,NaN,""
201.473,24.6207,20.0002,NaN,NaN,NaN,NaN,""
256.863,24.6067,20.0002,NaN,NaN,NaN,NaN,""
293.49,24.6017,20,NaN,NaN,NaN,NaN,""
336.099,24.5974,19.9998,NaN,NaN,NaN,NaN,""
338.229,24.5972,19.9998,NaN,NaN,NaN,NaN,""
353.244,24.6487,19.9998,NaN,NaN,NaN,NaN,""
359.463,24.5829,19.9998,NaN,NaN,NaN,NaN,""
391.471,24.5852,19.9998,NaN,NaN,NaN,NaN,""
439.744,24.5888,20.0004,NaN,NaN,NaN,NaN,""
462.967,24.5905,20.0001,NaN,NaN,NaN,NaN,""
484.682,24.5921,19.9995,NaN,NaN,NaN,NaN,""
581.305,24.5992,19.9998,NaN,NaN,NaN,NaN,""
581.862,24.5993,19.9998,NaN,NaN,NaN,NaN,""
680.326,24.5839,19.9998,NaN,NaN,NaN,NaN,""
696.482,24.6405,19.9998,NaN,NaN,NaN,NaN,""
705.441,24.6219,19.9997,NaN,NaN,NaN,NaN,""
722.041,24.5647,19.9995,NaN,NaN,NaN,NaN,""
731.557,24.6154,19.9994,NaN,NaN,NaN,NaN,""
742.545,24.5971,19.9994,NaN,NaN,NaN,NaN,""
753.534,24.5788,19.9995,NaN,NaN,NaN,NaN,""
768.088,24.6192,19.9996,NaN,NaN,NaN,NaN,""
796.802,24.6086,19.9999,NaN,NaN,NaN,NaN,""
840.846,24.5923,19.9999,NaN,NaN,NaN,NaN,""
889.29,24.5799,19.9998,NaN,NaN,NaN,NaN,""
936.425,24.5692,19.9997,NaN,NaN,NaN,NaN,""
986.615,24.6093,19.9997,NaN,NaN,NaN,NaN,""
1009.96,24.5985,19.9998,NaN,NaN,NaN,NaN,""
1033.3,24.5854,20,NaN,NaN,NaN,NaN,""
1058.63,24.575,19.9999,NaN,NaN,NaN,NaN,""
1095.25,24.5613,19.9997,NaN,NaN,NaN,NaN,""
1126.09,24.572,19.9998,NaN,NaN,NaN,NaN,""
1175.03,24.5963,19.9998,NaN,NaN,NaN,NaN,""
1227.13,24.5801,19.9998,NaN,NaN,NaN,NaN,""
1261.26,24.5696,19.9996,NaN,NaN,NaN,NaN,""
1292.88,24.5724,19.9994,NaN,NaN,NaN,NaN,""
1329.37,24.5757,20,NaN,NaN,NaN,NaN,""
1364.37,24.5791,19.9999,NaN,NaN,NaN,NaN,""
1399.38,24.5927,19.9998,NaN,NaN,NaN,NaN,""
1415.35,24.5989,19.9999,NaN,NaN,NaN,NaN,""
1421.9,24.6479,19.9999,NaN,NaN,NaN,NaN,""
1434.06,24.5837,20,NaN,NaN,NaN,NaN,""
1448.91,24.5854,20.0001,NaN,NaN,NaN,NaN,""
1463.01,24.5887,20,NaN,NaN,NaN,NaN,""
1480.32,24.6297,20,NaN,NaN,NaN,NaN,""
1504.99,24.6236,20,NaN,NaN,NaN,NaN,""
1546.24,24.6135,20.0002,NaN,NaN,NaN,NaN,""
1570.88,24.6155,19.9999,NaN,NaN,NaN,NaN,""
1590.14,24.617,19.9997,NaN,NaN,NaN,NaN,""
1637.03,24.6208,20.0001,NaN,NaN,NaN,NaN,""
1657.46,24.6034,20.0001,NaN,NaN,NaN,NaN,""
1677.89,24.5859,20,NaN,NaN,NaN,NaN,""
1707.77,24.5981,19.9999,NaN,NaN,NaN,NaN,""
1756.74,24.6181,20.0001,NaN,NaN,NaN,NaN,""
1788.02,24.6153,19.9999,NaN,NaN,NaN,NaN,""
1819.3,24.6126,19.9996,NaN,NaN,NaN,NaN,""
1832.84,24.5944,19.9996,NaN,NaN,NaN,NaN,""
1846.37,24.5762,19.9996,NaN,NaN,NaN,NaN,""
1866.65,24.6608,19.9997,NaN,NaN,NaN,NaN,""
1877.69,24.6333,19.9997,NaN,NaN,NaN,NaN,""
1888.74,24.6057,19.9997,NaN,NaN,NaN,NaN,""
1903.39,24.6005,19.9997,NaN,NaN,NaN,NaN,""
1934.13,24.5897,20.0001,NaN,NaN,NaN,NaN,""
1968.37,24.5886,20,NaN,NaN,NaN,NaN,""
1987.56,24.6007,19.9999,NaN,NaN,NaN,NaN,""
2019.56,24.5894,19.9998,NaN,NaN,NaN,NaN,""
2054.52,24.6316,19.9997,NaN,NaN,NaN,NaN,""
2071.75,24.5964,19.9997,NaN,NaN,NaN,NaN,""
2088.98,24.5612,19.9997,NaN,NaN,NaN,NaN,""
2109.73,24.6368,19.9997,NaN,NaN,NaN,NaN,""
2138.39,24.6167,19.9996,NaN,NaN,NaN,NaN,""
2163.53,24.5971,19.9996,NaN,NaN,NaN,NaN,""
2185.65,24.5798,20.0001,NaN,NaN,NaN,NaN,""
2193.2,24.6083,20.0002,NaN,NaN,NaN,NaN,""
2199.91,24.629,20.0001,NaN,NaN,NaN,NaN,""
2210.65,24.6094,19.9998,NaN,NaN,NaN,NaN,""
2233.81,24.5672,19.9998,NaN,NaN,NaN,NaN,""
2254.25,24.5749,19.9999,NaN,NaN,NaN,NaN,""
2293.41,24.5897,19.9997,NaN,NaN,NaN,NaN,""
2322.68,24.6008,19.9998,NaN,NaN,NaN,NaN,""
2349.54,24.6008,19.9998,NaN,NaN,NaN,NaN,""
2382.56,24.6007,19.9997,NaN,NaN,NaN,NaN,""
2411.2,24.6007,20.0002,NaN,NaN,NaN,NaN,""
2449.43,24.6006,19.9999,NaN,NaN,NaN,NaN,""
2503.99,24.6005,19.9998,NaN,NaN,NaN,NaN,""
2531.28,24.6361,19.9997,NaN,NaN,NaN,NaN,""
2549.06,24.6292,19.9996,NaN,NaN,NaN,NaN,""
2562.93,24.6238,19.9999,NaN,NaN,NaN,NaN,""
2608.88,24.6058,19.9998,NaN,NaN,NaN,NaN,""
2634.14,24.604,19.9998,NaN,NaN,NaN,NaN,""
2655.09,24.6025,19.9999,NaN,NaN,NaN,NaN,""
2692.24,24.5998,20.0006,NaN,NaN,NaN,NaN,""
2694.09,24.5997,20.0006,NaN,NaN,NaN,NaN,""
2720.74,24.5439,20.0001,NaN,NaN,NaN,NaN,""
2730.83,24.5787,20,NaN,NaN,NaN,NaN,""
2740.91,24.6135,20,NaN,NaN,NaN,NaN,""
2773.49,24.6105,20,NaN,NaN,NaN,NaN,""
2791.25,24.6088,19.9994,NaN,NaN,NaN,NaN,""
2815.56,24.6073,19.9996,NaN,NaN,NaN,NaN,""
2839.86,24.6102,19.9998,NaN,NaN,NaN,NaN,""
2885.24,24.6157,19.9996,NaN,NaN,NaN,NaN,""
2892.81,24.5499,19.9996,NaN,NaN,NaN,NaN,""
2924.02,24.582,19.9998,NaN,NaN,NaN,NaN,""
2941.9,24.6004,20,NaN,NaN,NaN,NaN,""
2961.65,24.6193,19.9998,NaN,NaN,NaN,NaN,""
2978.66,24.6331,19.9997,NaN,NaN,NaN,NaN,""
2989.24,24.6416,19.9999,NaN,NaN,NaN,NaN,""
2992.62,24.5652,19.9999,NaN,NaN,NaN,NaN,""
3003.14,24.5811,20,NaN,NaN,NaN,NaN,""
3023.42,24.6116,19.9998,NaN,NaN,NaN,NaN,""
3042.62,24.609,19.9997,NaN,NaN,NaN,NaN,""
3074.93,24.6046,19.9999,NaN,NaN,NaN,NaN,""
3085.7,24.6108,19.9997,NaN,NaN,NaN,NaN,""
3096.48,24.6181,19.9995,NaN,NaN,NaN,NaN,""
3115.17,24.6308,20,NaN,NaN,NaN,NaN,""
3145.18,24.6511,19.9999,NaN,NaN,NaN,NaN,""
3152.74,24.5928,19.9999,NaN,NaN,NaN,NaN,""
3173.42,24.6102,19.9996,NaN,NaN,NaN,NaN,""
3192.54,24.6263,19.9994,NaN,NaN,NaN,NaN,""
3215.52,24.6168,19.9996,NaN,NaN,NaN,NaN,""
3231,24.607,19.9997,NaN,NaN,NaN,NaN,""
3248.82,24.6407,19.9999,NaN,NaN,NaN,NaN,""
3261.81,24.6145,19.9999,NaN,NaN,NaN,NaN,""
3267.61,24.5811,19.9999,NaN,NaN,NaN,NaN,""
3280.44,24.6217,19.9999,NaN,NaN,NaN,NaN,""
3311.96,24.6005,19.9999,NaN,NaN,NaN,NaN,""
3324.1,24.6017,20.0003,NaN,NaN,NaN,NaN,""
3336.24,24.6083,20.0006,NaN,NaN,NaN,NaN,""
3363.3,24.6231,20.0002,NaN,NaN,NaN,NaN,""
3371.46,24.5623,20.0001,NaN,NaN,NaN,NaN,""
3375.93,24.5625,20.0001,NaN,NaN,NaN,NaN,""
3406,24.6113,20,NaN,NaN,NaN,NaN,""
3435.17,24.6122,19.9999,NaN,NaN,NaN,NaN,""
3456.97,24.6262,20,NaN,NaN,NaN,NaN,""
3475.74,24.6607,20,NaN,NaN,NaN,NaN,""
3482.56,24.5992,20,NaN,NaN,NaN,NaN,""
3494.11,24.6373,20.0001,NaN,NaN,NaN,NaN,""
3501.85,24.6536,20.0002,NaN,NaN,NaN,NaN,""
3517.04,24.6668,20.0004,NaN,NaN,NaN,NaN,""
3541.64,24.6881,19.9998,NaN,NaN,NaN,NaN,""
3563.14,24.7068,19.9999,NaN,NaN,NaN,NaN,""
3580.17,24.6998,20.0001,NaN,NaN,NaN,NaN,""
3606.18,24.6891,20.0001,NaN,NaN,NaN,NaN,""
3614.24,24.584,20.0002,NaN,NaN,NaN,NaN,""
3625.45,24.6139,20,NaN,NaN,NaN,NaN,""
3636.65,24.6438,19.9998,NaN,NaN,NaN,NaN,""
3653.22,24.6387,19.9996,NaN,NaN,NaN,NaN,""
3677.86,24.631,19.9998,NaN,NaN,NaN,NaN,""
3698.24,24.6246,20.0004,NaN,NaN,NaN,NaN,""
3713.36,24.634,20.0004,NaN,NaN,NaN,NaN,""
3728.47,24.6476,20.0004,NaN,NaN,NaN,NaN,""
3751.87,24.6687,20.0001,NaN,NaN,NaN,NaN,""
3774.56,24.6581,19.9999,NaN,NaN,NaN,NaN,""
3796.24,24.648,20,NaN,NaN,NaN,NaN,""
3820.5,24.6482,19.9999,NaN,NaN,NaN,NaN,""
3844.76,24.6565,19.9998,NaN,NaN,NaN,NaN,""
3897.6,24.6746,19.9999,NaN,NaN,NaN,NaN,""
3909.48,24.6461,20.0001,NaN,NaN,NaN,NaN,""
3921.37,24.6176,20.0003,NaN,NaN,NaN,NaN,""
3929.72,24.6463,20.0004,NaN,NaN,NaN,NaN,""
3938.08,24.675,20.0003,NaN,NaN,NaN,NaN,""
3979.03,24.6533,19.9999,NaN,NaN,NaN,NaN,""
3998.59,24.6506,20,NaN,NaN,NaN,NaN,""
4018.14,24.658,20.0001,NaN,NaN,NaN,NaN,""
4039.01,24.666,19.9996,NaN,NaN,NaN,NaN,""
4055.35,24.6463,19.9992,NaN,NaN,NaN,NaN,""
4071.69,24.6266,19.9996,NaN,NaN,NaN,NaN,""
4093.99,24.6266,20.0001,NaN,NaN,NaN,NaN,""
4231.32,24.6266,19.9998,NaN,NaN,NaN,NaN,""
4324.13,24.6253,19.9998,NaN,NaN,NaN,NaN,""
4416.94,24.6229,19.9997,NaN,NaN,NaN,NaN,""
4470.13,24.6215,19.9999,NaN,NaN,NaN,NaN,""
4509.99,24.6205,20.0005,NaN,NaN,NaN,NaN,""
4540.67,24.6197,20,NaN,NaN,NaN,NaN,""
4572.24,24.6189,19.9992,NaN,NaN,NaN,NaN,""
4593.65,24.6183,19.9995,NaN,NaN,NaN,NaN,""
4612.45,24.6329,19.9996,NaN,NaN,NaN,NaN,""
4654.02,24.6653,20,NaN,NaN,NaN,NaN,""
4673.49,24.6804,19.9997,NaN,NaN,NaN,NaN,""
4680.09,24.6222,19.9996,NaN,NaN,NaN,NaN,""
4694.7,24.6151,19.9997,NaN,NaN,NaN,NaN,""
4709.31,24.608,19.9998,NaN,NaN,NaN,NaN,""
4722.54,24.6802,19.9999,NaN,NaN,NaN,NaN,""
4729.42,24.6601,19.9999,NaN,NaN,NaN,NaN,""
4737.32,24.6315,19.9998,NaN,NaN,NaN,NaN,""
4755.3,24.632,19.9995,NaN,NaN,NaN,NaN,""
4783.05,24.6327,19.9999,NaN,NaN,NaN,NaN,""
4800.67,24.6323,19.9999,NaN,NaN,NaN,NaN,""
4818.29,24.6298,19.9998,NaN,NaN,NaN,NaN,""
4857.61,24.6244,19.9998,NaN,NaN,NaN,NaN,""
4876.55,24.6427,19.9998,NaN,NaN,NaN,NaN,""
4895.48,24.6611,20,NaN,NaN,NaN,NaN,""
4913.38,24.6479,20,NaN,NaN,NaN,NaN,""
4926.79,24.638,19.9998,NaN,NaN,NaN,NaN,""
4949.46,24.6214,19.9994,NaN,NaN,NaN,NaN,""
4961.56,24.6447,19.9997,NaN,NaN,NaN,NaN,""
4973.8,24.6683,20,NaN,NaN,NaN,NaN,""
4988.48,24.6698,19.9999,NaN,NaN,NaN,NaN,""
5006.81,24.6541,19.9998,NaN,NaN,NaN,NaN,""
5047.24,24.6195,20,NaN,NaN,NaN,NaN,""
5048.53,24.6184,19.9999,NaN,NaN,NaN,NaN,""
5070.72,24.6586,19.9996,NaN,NaN,NaN,NaN,""
5076.97,24.6253,19.9995,NaN,NaN,NaN,NaN,""
5083.21,24.592,19.9995,NaN,NaN,NaN,NaN,""
5107.62,24.6093,19.9994,NaN,NaN,NaN,NaN,""
5121.91,24.6194,19.9999,NaN,NaN,NaN,NaN,""
5144.54,24.6354,19.9999,NaN,NaN,NaN,NaN,""
5162.95,24.6359,19.9999,NaN,NaN,NaN,NaN,""
5200.87,24.6369,20.0002,NaN,NaN,NaN,NaN,""
5223.56,24.6375,20,NaN,NaN,NaN,NaN,""
5235.24,24.6378,19.9995,NaN,NaN,NaN,NaN,""
5261.82,24.6385,20,NaN,NaN,NaN,NaN,""
5270.47,24.6564,20.0001,NaN,NaN,NaN,NaN,""
5279.12,24.6744,20.0001,NaN,NaN,NaN,NaN,""
5320.63,24.6307,19.9997,NaN,NaN,NaN,NaN,""
5353.33,24.6279,19.9997,NaN,NaN,NaN,NaN,""
5397.96,24.6239,20,NaN,NaN,NaN,NaN,""
5410.57,24.5953,20,NaN,NaN,NaN,NaN,""
5418.99,24.5908,20,NaN,NaN,NaN,NaN,""
5454.28,24.6335,20.0001,NaN,NaN,NaN,NaN,""
5489.33,24.6383,19.9999,NaN,NaN,NaN,NaN,""
5497.95,24.6395,19.9996,NaN,NaN,NaN,NaN,""
5516.09,24.6419,19.9999,NaN,NaN,NaN,NaN,""
5548.74,24.6464,19.9998,NaN,NaN,NaN,NaN,""
5573.81,24.6361,19.9999,NaN,NaN,NaN,NaN,""
5597.98,24.6261,20.0003,NaN,NaN,NaN,NaN,""
5632.51,24.6119,19.9995,NaN,NaN,NaN,NaN,""
5666.07,24.598,20,NaN,NaN,NaN,NaN,""
5674.77,24.6349,20.0001,NaN,NaN,NaN,NaN,""
5683.46,24.6718,20.0001,NaN,NaN,NaN,NaN,""
5706.85,24.6323,20.0003,NaN,NaN,NaN,NaN,""
5726.73,24.629,20.0002,NaN,NaN,NaN,NaN,""
5746.61,24.6257,19.9999,NaN,NaN,NaN,NaN,""
5764.21,24.6387,19.9997,NaN,NaN,NaN,NaN,""
5782.49,24.6522,19.9994,NaN,NaN,NaN,NaN,""
5793.63,24.659,19.9997,NaN,NaN,NaN,NaN,""
5804.77,24.6567,19.9999,NaN,NaN,NaN,NaN,""
5834.86,24.6504,19.9996,NaN,NaN,NaN,NaN,""
5873.95,24.6424,20.0002,NaN,NaN,NaN,NaN,""
5921.31,24.6331,20,NaN,NaN,NaN,NaN,""
5973.2,24.6231,19.9999,NaN,NaN,NaN,NaN,""
5983.72,24.67,19.9999,NaN,NaN,NaN,NaN,""
5994.24,24.7169,19.9998,NaN,NaN,NaN,NaN,""
6005.11,24.638,19.9998,NaN,NaN,NaN,NaN,""
6023.31,24.5853,19.9997,NaN,NaN,NaN,NaN,""
6044.72,24.6436,19.9997,NaN,NaN,NaN,NaN,""
6091.69,24.6303,19.9996,NaN,NaN,NaN,NaN,""
6095.55,24.6333,19.9995,NaN,NaN,NaN,NaN,""
6123.28,24.655,20,NaN,NaN,NaN,NaN,""
6134.28,24.6222,20.0002,NaN,NaN,NaN,NaN,""
6142.1,24.6116,19.9999,NaN,NaN,NaN,NaN,""
6155.37,24.6254,19.9995,NaN,NaN,NaN,NaN,""
6171.58,24.6424,19.9997,NaN,NaN,NaN,NaN,""
6180.94,24.6441,19.9998,NaN,NaN,NaN,NaN,""
6266.34,24.6594,20,NaN,NaN,NaN,NaN,""
6303.79,24.6539,20,NaN,NaN,NaN,NaN,""
6341.25,24.6484,19.9999,NaN,NaN,NaN,NaN,""
6365.95,24.6676,19.9998,NaN,NaN,NaN,NaN,""
6390.65,24.6868,19.9997,NaN,NaN,NaN,NaN,""
6415.13,24.6662,19.9996,NaN,NaN,NaN,NaN,""
6439.61,24.6456,19.9998,NaN,NaN,NaN,NaN,""
6465.8,24.6527,19.9998,NaN,NaN,NaN,NaN,""
6498.88,24.6616,19.9998,NaN,NaN,NaN,NaN,""
6532.87,24.5856,19.9997,NaN,NaN,NaN,NaN,""
6556.76,24.6077,19.9997,NaN,NaN,NaN,NaN,""
6580.64,24.6299,19.9997,NaN,NaN,NaN,NaN,""
6645.94,24.6441,19.9996,NaN,NaN,NaN,NaN,""
6708.61,24.6577,20.0001,NaN,NaN,NaN,NaN,""
6733.7,24.6301,20.0001,NaN,NaN,NaN,NaN,""
6758.8,24.6025,19.9999,NaN,NaN,NaN,NaN,""
6796.89,24.6221,19.9997,NaN,NaN,NaN,NaN,""
6849.04,24.6489,19.9997,NaN,NaN,NaN,NaN,""
6864.68,24.6524,20,NaN,NaN,NaN,NaN,""
6880.32,24.652,20.0003,NaN,NaN,NaN,NaN,""
6919.19,24.651,19.9999,NaN,NaN,NaN,NaN,""
6953.55,24.6501,20.0001,NaN,NaN,NaN,NaN,""
6990.49,24.6491,19.9997,NaN,NaN,NaN,NaN,""
7008.77,24.6486,20,NaN,NaN,NaN,NaN,""
7034.06,24.6479,19.9998,NaN,NaN,NaN,NaN,""
7047.42,24.6476,19.9999,NaN,NaN,NaN,NaN,""
7064.53,24.6762,20.0001,NaN,NaN,NaN,NaN,""
7078.05,24.6907,20,NaN,NaN,NaN,NaN,""
7097.36,24.6794,19.9999,NaN,NaN,NaN,NaN,""
7123.24,24.6643,19.9995,NaN,NaN,NaN,NaN,""
7142.45,24.6531,19.9998,NaN,NaN,NaN,NaN,""
7154.61,24.6545,19.9999,NaN,NaN,NaN,NaN,""
7174.11,24.6566,19.9998,NaN,NaN,NaN,NaN,""
7202.24,24.6598,20.0003,NaN,NaN,NaN,NaN,""
7227.05,24.6625,19.9999,NaN,NaN,NaN,NaN,""
7242.53,24.6577,19.9997,NaN,NaN,NaN,NaN,""
7266.01,24.6503,19.9995,NaN,NaN,NaN,NaN,""
7284.84,24.6567,19.9997,NaN,NaN,NaN,NaN,""
7301.47,24.6871,19.9999,NaN,NaN,NaN,NaN,""
7316.95,24.6651,19.9999,NaN,NaN,NaN,NaN,""
7332.14,24.6435,19.9998,NaN,NaN,NaN,NaN,""
7342.01,24.6473,20,NaN,NaN,NaN,NaN,""
7351.89,24.6516,20.0002,NaN,NaN,NaN,NaN,""
7382.39,24.665,19.9999,NaN,NaN,NaN,NaN,""
7404.95,24.6611,19.9999,NaN,NaN,NaN,NaN,""
7427.51,24.6369,19.9999,NaN,NaN,NaN,NaN,""
7445.26,24.6681,19.9997,NaN,NaN,NaN,NaN,""
7457.84,24.6872,19.9996,NaN,NaN,NaN,NaN,""
7465.24,24.6372,19.9995,NaN,NaN,NaN,NaN,""
7472.21,24.6558,19.9996,NaN,NaN,NaN,NaN,""
7479.17,24.6745,19.9997,NaN,NaN,NaN,NaN,""
7495.47,24.6608,19.9999,NaN,NaN,NaN,NaN,""
7518.8,24.6412,19.9998,NaN,NaN,NaN,NaN,""
7547.08,24.6395,19.9997,NaN,NaN,NaN,NaN,""
7574.78,24.6377,20.0001,NaN,NaN,NaN,NaN,""
7580.36,24.6568,20.0002,NaN,NaN,NaN,NaN,""
7585.95,24.6759,20.0002,NaN,NaN,NaN,NaN,""
7594.49,24.6255,20.0003,NaN,NaN,NaN,NaN,""
7610.22,24.6461,20.0003,NaN,NaN,NaN,NaN,""
7627.67,24.669,19.9998,NaN,NaN,NaN,NaN,""
7639.45,24.6564,19.9998,NaN,NaN,NaN,NaN,""
7656.95,24.6378,19.9998,NaN,NaN,NaN,NaN,""
7677.44,24.664,19.9999,NaN,NaN,NaN,NaN,""
7695.51,24.6816,20,NaN,NaN,NaN,NaN,""
7726.4,24.6505,20.0003,NaN,NaN,NaN,NaN,""
7730.49,24.6539,20.0003,NaN,NaN,NaN,NaN,""
7749.59,24.67,20,NaN,NaN,NaN,NaN,""
7764.99,24.683,19.9997,NaN,NaN,NaN,NaN,""
7776.12,24.6502,19.9996,NaN,NaN,NaN,NaN,""
7787.25,24.6175,19.9997,NaN,NaN,NaN,NaN,""
7807.55,24.6249,20,NaN,NaN,NaN,NaN,""
7822.67,24.6345,19.9999,NaN,NaN,NaN,NaN,""
7848.69,24.6642,19.9998,NaN,NaN,NaN,NaN,""
7872.1,24.642,19.9998,NaN,NaN,NaN,NaN,""
7900.49,24.615,19.9999,NaN,NaN,NaN,NaN,""
7907.15,24.6574,19.9999,NaN,NaN,NaN,NaN,""
7930.88,24.6453,19.9999,NaN,NaN,NaN,NaN,""
7949.08,24.6418,20.0002,NaN,NaN,NaN,NaN,""
7970.74,24.6535,20.0005,NaN,NaN,NaN,NaN,""
7994.81,24.6197,20.0002,NaN,NaN,NaN,NaN,""
7997.09,24.5998,20.0002,NaN,NaN,NaN,NaN,""
8045.63,24.6501,19.9996,NaN,NaN,NaN,NaN,""
8069.8,24.6575,19.9997,NaN,NaN,NaN,NaN,""
8093.96,24.6636,19.9998,NaN,NaN,NaN,NaN,""
8124.83,24.6713,19.9995,NaN,NaN,NaN,NaN,""
8134.72,24.6678,19.9998,NaN,NaN,NaN,NaN,""
8144.61,24.6639,20.0002,NaN,NaN,NaN,NaN,""
8178.75,24.6506,20,NaN,NaN,NaN,NaN,""
8220.09,24.6344,19.9998,NaN,NaN,NaN,NaN,""
8226.81,24.6318,19.9999,NaN,NaN,NaN,NaN,""
8231.24,24.6778,20,NaN,NaN,NaN,NaN,""
8248.06,24.6514,20.0002,NaN,NaN,NaN,NaN,""
8259.01,24.6342,20,NaN,NaN,NaN,NaN,""
8266.84,24.6404,19.9998,NaN,NaN,NaN,NaN,""
8300.96,24.6675,19.9998,NaN,NaN,NaN,NaN,""
8357.04,24.6335,19.9998,NaN,NaN,NaN,NaN,""
8379.74,24.7033,19.9999,NaN,NaN,NaN,NaN,""
8416.63,24.6889,19.9999,NaN,NaN,NaN,NaN,""
8453.52,24.6745,19.9998,NaN,NaN,NaN,NaN,""
8673.94,24.6518,19.9998,NaN,NaN,NaN,NaN,""
8747.03,24.6924,19.9998,NaN,NaN,NaN,NaN,""
8776.96,24.6775,19.9997,NaN,NaN,NaN,NaN,""
8795.69,24.6654,19.9996,NaN,NaN,NaN,NaN,""
8820.77,24.6797,20,NaN,NaN,NaN,NaN,""
8830.19,24.685,20.0002,NaN,NaN,NaN,NaN,""
8849.48,24.6643,20.0002,NaN,NaN,NaN,NaN,""
8864.3,24.6034,20.0001,NaN,NaN,NaN,NaN,""
8877.2,24.6041,20.0002,NaN,NaN,NaN,NaN,""
8895.94,24.6427,20.0003,NaN,NaN,NaN,NaN,""
8907.59,24.6666,20.0001,NaN,NaN,NaN,NaN,""
8915.95,24.6917,20.0001,NaN,NaN,NaN,NaN,""
8942.46,24.7715,20.0003,NaN,NaN,NaN,NaN,""
8952.35,24.73,20.0003,NaN,NaN,NaN,NaN,""
8962.24,24.6884,20.0003,NaN,NaN,NaN,NaN,""
8987.31,24.7926,20.0004,NaN,NaN,NaN,NaN,""
8999.87,24.7332,20.0003,NaN,NaN,NaN,NaN,""
9012.42,24.6737,20.0001,NaN,NaN,NaN,NaN,""
9036.12,24.6644,19.9999,NaN,NaN,NaN,NaN,""
9054.35,24.6668,20,NaN,NaN,NaN,NaN,""
9080.53,24.7023,20.0003,NaN,NaN,NaN,NaN,""
9106.64,24.6952,20.0002,NaN,NaN,NaN,NaN,""
9113.66,24.6507,20.0002,NaN,NaN,NaN,NaN,""
9159.39,24.7034,20.0001,NaN,NaN,NaN,NaN,""
9181.87,24.7146,20,NaN,NaN,NaN,NaN,""
9198.27,24.6446,20.0001,NaN,NaN,NaN,NaN,""
9202.32,24.6267,20.0001,NaN,NaN,NaN,NaN,""
9222.03,24.693,20.0001,NaN,NaN,NaN,NaN,""
9253.74,24.769,20.0003,NaN,NaN,NaN,NaN,""
9284.12,24.7342,20.0002,NaN,NaN,NaN,NaN,""
9314.49,24.6995,19.9999,NaN,NaN,NaN,NaN,""
9346.58,24.7092,19.9995,NaN,NaN,NaN,NaN,""
9368.2,24.698,19.9999,NaN,NaN,NaN,NaN,""
9386.24,24.6668,20.0002,NaN,NaN,NaN,NaN,""
9401.34,24.6986,20.0002,NaN,NaN,NaN,NaN,""
9416.43,24.7303,20.0001,NaN,NaN,NaN,NaN,""
9449.28,24.69,19.9999,NaN,NaN,NaN,NaN,""
9466.29,24.7076,19.9999,NaN,NaN,NaN,NaN,""
9483.3,24.7252,20,NaN,NaN,NaN,NaN,""
9503.39,24.6711,20.0001,NaN,NaN,NaN,NaN,""
9528.28,24.6768,20,NaN,NaN,NaN,NaN,""
9549.97,24.6817,19.9999,NaN,NaN,NaN,NaN,""
9595.24,24.692,20.0003,NaN,NaN,NaN,NaN,""
9627.48,24.6993,19.9997,NaN,NaN,NaN,NaN,""
9651.39,24.6988,19.9996,NaN,NaN,NaN,NaN,""
9675.3,24.6982,19.9996,NaN,NaN,NaN,NaN,""
9721.7,24.6969,20,NaN,NaN,NaN,NaN,""
9768.73,24.6957,20.0001,NaN,NaN,NaN,NaN,""
9784.9,24.6953,20.0001,NaN,NaN,NaN,NaN,""
9797.65,24.7712,20,NaN,NaN,NaN,NaN,""
9810.79,24.7443,20.0001,NaN,NaN,NaN,NaN,""
9823.94,24.7174,20.0001,NaN,NaN,NaN,NaN,""
9847.12,24.7201,20.0003,NaN,NaN,NaN,NaN,""
9891.52,24.7252,20.0002,NaN,NaN,NaN,NaN,""
9920.6,24.7449,20.0002,NaN,NaN,NaN,NaN,""
9945.1,24.7534,20.0001,NaN,NaN,NaN,NaN,""
9972.81,24.724,20,NaN,NaN,NaN,NaN,""
9996.68,24.7289,19.9999,NaN,NaN,NaN,NaN,""
10020.6,24.7339,19.9995,NaN,NaN,NaN,NaN,""
10038.5,24.7325,19.9996,NaN,NaN,NaN,NaN,""
10056.3,24.7312,20.0002,NaN,NaN,NaN,NaN,""
10075.4,24.7297,20.0002,NaN,NaN,NaN,NaN,""
10093.4,24.7585,20.0002,NaN,NaN,NaN,NaN,""
10100.2,24.7693,20,NaN,NaN,NaN,NaN,""
10105.4,24.7113,20,NaN,NaN,NaN,NaN,""
10116.6,24.7435,19.9998,NaN,NaN,NaN,NaN,""
10127.8,24.7758,19.9999,NaN,NaN,NaN,NaN,""
10159.4,24.7456,20.0001,NaN,NaN,NaN,NaN,""
10179.4,24.7326,20,NaN,NaN,NaN,NaN,""
10199.4,24.7269,19.9998,NaN,NaN,NaN,NaN,""
10216.6,24.7654,20,NaN,NaN,NaN,NaN,""
10226.1,24.7776,20.0001,NaN,NaN,NaN,NaN,""
10236.3,24.7304,20.0003,NaN,NaN,NaN,NaN,""
10243.2,24.733,20.0001,NaN,NaN,NaN,NaN,""
10261.2,24.7547,19.9996,NaN,NaN,NaN,NaN,""
10274.1,24.6932,19.9996,NaN,NaN,NaN,NaN,""
10280.9,24.6869,19.9996,NaN,NaN,NaN,NaN,""
10303.8,24.7334,19.9997,NaN,NaN,NaN,NaN,""
10321.9,24.7563,19.9998,NaN,NaN,NaN,NaN,""
10349.1,24.7699,20,NaN,NaN,NaN,NaN,""
10376.2,24.7835,19.9998,NaN,NaN,NaN,NaN,""
10382.9,24.8494,19.9997,NaN,NaN,NaN,NaN,""
10395.6,24.8111,19.9996,NaN,NaN,NaN,NaN,""
10406.6,24.7807,19.9998,NaN,NaN,NaN,NaN,""
10417.9,24.7638,20,NaN,NaN,NaN,NaN,""
10443.3,24.726,20.0005,NaN,NaN,NaN,NaN,""
10461,24.7265,20.0003,NaN,NaN,NaN,NaN,""
10471.4,24.7334,20.0002,NaN,NaN,NaN,NaN,""
10478.7,24.7013,20.0002,NaN,NaN,NaN,NaN,""
10482.9,24.7109,20.0001,NaN,NaN,NaN,NaN,""
10505.2,24.7755,19.9998,NaN,NaN,NaN,NaN,""
10515.9,24.7659,20,NaN,NaN,NaN,NaN,""
10526.6,24.7443,20.0002,NaN,NaN,NaN,NaN,""
10536.6,24.7601,20.0001,NaN,NaN,NaN,NaN,""
10553.7,24.7944,19.9999,NaN,NaN,NaN,NaN,""
10567.1,24.7861,20,NaN,NaN,NaN,NaN,""
10620.6,24.7447,20.0001,NaN,NaN,NaN,NaN,""
10642.8,24.7464,20.0001,NaN,NaN,NaN,NaN,""
10665,24.748,20.0001,NaN,NaN,NaN,NaN,""
10687.4,24.7212,20,NaN,NaN,NaN,NaN,""
10702.2,24.7992,20,NaN,NaN,NaN,NaN,""
10711.1,24.7835,19.9999,NaN,NaN,NaN,NaN,""
10716.8,24.7534,19.9998,NaN,NaN,NaN,NaN,""
10740.3,24.7152,19.9995,NaN,NaN,NaN,NaN,""
10757.6,24.7423,19.9996,NaN,NaN,NaN,NaN,""
10773,24.7665,20,NaN,NaN,NaN,NaN,""
10774.8,24.7694,20,NaN,NaN,NaN,NaN,""
10786.9,24.8389,20,NaN,NaN,NaN,NaN,""
10802.4,24.7992,20,NaN,NaN,NaN,NaN,""
10813.2,24.8276,19.9999,NaN,NaN,NaN,NaN,""
10822.3,24.8459,19.9999,NaN,NaN,NaN,NaN,""
10861.8,24.8131,19.9998,NaN,NaN,NaN,NaN,""
10868.3,24.8143,19.9998,NaN,NaN,NaN,NaN,""
10889.1,24.8181,20.0002,NaN,NaN,NaN,NaN,""
10913.3,24.8226,20.0001,NaN,NaN,NaN,NaN,""
10926.9,24.769,20.0001,NaN,NaN,NaN,NaN,""
10936.5,24.8214,20,NaN,NaN,NaN,NaN,""
10941.6,24.8214,20,NaN,NaN,NaN,NaN,""
10968.7,24.7986,20,NaN,NaN,NaN,NaN,""
11012.8,24.7958,19.9999,NaN,NaN,NaN,NaN,""
11019.2,24.8453,19.9999,NaN,NaN,NaN,NaN,""
11036.2,24.8102,19.9999,NaN,NaN,NaN,NaN,""
11048.7,24.7944,20,NaN,NaN,NaN,NaN,""
11078.3,24.8016,20.0002,NaN,NaN,NaN,NaN,""
11102.5,24.792,20.0003,NaN,NaN,NaN,NaN,""
11126.7,24.7824,19.9999,NaN,NaN,NaN,NaN,""
11129.9,24.8228,19.9998,NaN,NaN,NaN,NaN,""
11151.6,24.8098,19.9996,NaN,NaN,NaN,NaN,""
11179.9,24.7929,19.9998,NaN,NaN,NaN,NaN,""
11207,24.7959,20,NaN,NaN,NaN,NaN,""
11234.1,24.799,20.0001,NaN,NaN,NaN,NaN,""
11264.8,24.7828,20.0002,NaN,NaN,NaN,NaN,""
11286.9,24.7794,20.0001,NaN,NaN,NaN,NaN,""
11334.3,24.7999,19.9999,NaN,NaN,NaN,NaN,""
11337.1,24.8011,19.9999,NaN,NaN,NaN,NaN,""
11361.1,24.7732,19.9998,NaN,NaN,NaN,NaN,""
11379.9,24.8164,19.9997,NaN,NaN,NaN,NaN,""
11392,24.7447,19.9997,NaN,NaN,NaN,NaN,""
11421.8,24.7666,19.9999,NaN,NaN,NaN,NaN,""
11441,24.7808,20,NaN,NaN,NaN,NaN,""
11471.6,24.8042,19.9999,NaN,NaN,NaN,NaN,""
11501.6,24.8279,19.9999,NaN,NaN,NaN,NaN,""
11525.3,24.7598,19.9999,NaN,NaN,NaN,NaN,""
11558.8,24.767,20,NaN,NaN,NaN,NaN,""
11592.3,24.7743,20.0002,NaN,NaN,NaN,NaN,""
11599.4,24.7816,20.0002,NaN,NaN,NaN,NaN,""
11615.1,24.7976,19.9998,NaN,NaN,NaN,NaN,""
11631.6,24.8479,19.9998,NaN,NaN,NaN,NaN,""
11639.2,24.897,19.9998,NaN,NaN,NaN,NaN,""
11661.5,24.8113,19.9998,NaN,NaN,NaN,NaN,""
11693.4,24.8134,19.9998,NaN,NaN,NaN,NaN,""
11731.6,24.8158,19.9998,NaN,NaN,NaN,NaN,""
11755.6,24.8239,19.9998,NaN,NaN,NaN,NaN,""
11777.8,24.8313,20.0005,NaN,NaN,NaN,NaN,""
11788.8,24.8251,20.0004,NaN,NaN,NaN,NaN,""
11799.7,24.8169,20.0003,NaN,NaN,NaN,NaN,""
11823.8,24.7987,20,NaN,NaN,NaN,NaN,""
11840,24.8207,19.9998,NaN,NaN,NaN,NaN,""
11853.7,24.8239,19.9999,NaN,NaN,NaN,NaN,""
11861.8,24.7837,19.9999,NaN,NaN,NaN,NaN,""
11884,24.7995,20.0001,NaN,NaN,NaN,NaN,""
11901.4,24.8084,19.9999,NaN,NaN,NaN,NaN,""
11927.2,24.8084,19.9997,NaN,NaN,NaN,NaN,""
11930.5,24.8755,19.9997,NaN,NaN,NaN,NaN,""
11933.7,24.9425,19.9998,NaN,NaN,NaN,NaN,""
11939.2,25.0055,19.9998,NaN,NaN,NaN,NaN,""
11968.1,24.8754,20.0001,NaN,NaN,NaN,NaN,""
11981.4,24.8497,20.0001,NaN,NaN,NaN,NaN,""
11994.6,24.824,19.9999,NaN,NaN,NaN,NaN,""
12008,24.8449,19.9998,NaN,NaN,NaN,NaN,""
12026.3,24.8737,20,NaN,NaN,NaN,NaN,""
12044.1,24.867,20.0001,NaN,NaN,NaN,NaN,""
12079,24.8538,20,NaN,NaN,NaN,NaN,""
12095.1,24.8344,19.9999,NaN,NaN,NaN,NaN,""
12111.3,24.8147,19.9997,NaN,NaN,NaN,NaN,""
12127.6,24.7949,20.0001,NaN,NaN,NaN,NaN,""
12140.2,24.8098,20,NaN,NaN,NaN,NaN,""
12152.8,24.8303,19.9999,NaN,NaN,NaN,NaN,""
12168.7,24.8465,20.0001,NaN,NaN,NaN,NaN,""
12184.5,24.8472,20.0002,NaN,NaN,NaN,NaN,""
12204.4,24.8426,20.0001,NaN,NaN,NaN,NaN,""
12221.2,24.797,20,NaN,NaN,NaN,NaN,""
12227.3,24.9069,19.9999,NaN,NaN,NaN,NaN,""
12247.1,24.8183,19.9998,NaN,NaN,NaN,NaN,""
12261.8,24.8579,19.9996,NaN,NaN,NaN,NaN,""
12269.9,24.8075,19.9997,NaN,NaN,NaN,NaN,""
12274.7,24.7859,19.9997,NaN,NaN,NaN,NaN,""
12310,24.8174,19.9998,NaN,NaN,NaN,NaN,""
12314.8,24.9189,19.9999,NaN,NaN,NaN,NaN,""
12354,24.8631,20,NaN,NaN,NaN,NaN,""
12401.9,24.8623,19.9999,NaN,NaN,NaN,NaN,""
12432.9,24.8618,20,NaN,NaN,NaN,NaN,""
12460.2,24.8614,20.0003,NaN,NaN,NaN,NaN,""
12481.7,24.874,20.0002,NaN,NaN,NaN,NaN,""
12508.2,24.8895,20.0001,NaN,NaN,NaN,NaN,""
12519.2,24.896,19.9998,NaN,NaN,NaN,NaN,""
12530.3,24.7968,19.9995,NaN,NaN,NaN,NaN,""
12541.8,24.8115,19.9995,NaN,NaN,NaN,NaN,""
12560.7,24.8355,19.9995,NaN,NaN,NaN,NaN,""
12578.4,24.8396,19.9996,NaN,NaN,NaN,NaN,""
12607.5,24.8463,19.9999,NaN,NaN,NaN,NaN,""
12636.1,24.8528,19.9996,NaN,NaN,NaN,NaN,""
12650.4,24.8561,19.9997,NaN,NaN,NaN,NaN,""
12664.1,24.8258,19.9997,NaN,NaN,NaN,NaN,""
12678.4,24.7939,20,NaN,NaN,NaN,NaN,""
12694.6,24.824,20.0002,NaN,NaN,NaN,NaN,""
12714,24.8601,20.0001,NaN,NaN,NaN,NaN,""
12753.3,24.858,19.9999,NaN,NaN,NaN,NaN,""
12767.2,24.837,19.9998,NaN,NaN,NaN,NaN,""
12781,24.816,19.9997,NaN,NaN,NaN,NaN,""
12801.7,24.8335,19.9994,NaN,NaN,NaN,NaN,""
12802.1,24.8338,19.9994,NaN,NaN,NaN,NaN,""
12810.4,24.9069,19.9995,NaN,NaN,NaN,NaN,""
12838.4,24.8304,19.9999,NaN,NaN,NaN,NaN,""
12852.4,24.8359,19.9999,NaN,NaN,NaN,NaN,""
12888,24.8512,20,NaN,NaN,NaN,NaN,""
12916.5,24.849,19.9998,NaN,NaN,NaN,NaN,""
12940.2,24.8473,19.9995,NaN,NaN,NaN,NaN,""
12972.7,24.8449,20,NaN,NaN,NaN,NaN,""
13001.2,24.8428,20.0004,NaN,NaN,NaN,NaN,""
13021.3,24.8413,19.9998,NaN,NaN,NaN,NaN,""
13046.4,24.8394,19.9998,NaN,NaN,NaN,NaN,""
13069.6,24.7951,19.9998,NaN,NaN,NaN,NaN,""
13108.1,24.822,19.9998,NaN,NaN,NaN,NaN,""
13147.7,24.8772,20,NaN,NaN,NaN,NaN,""
13175.3,24.9158,20.0001,NaN,NaN,NaN,NaN,""
13187.2,24.9324,20.0001,NaN,NaN,NaN,NaN,""
13211.8,24.865,20.0001,NaN,NaN,NaN,NaN,""
13244.9,24.8568,20.0001,NaN,NaN,NaN,NaN,""
13263,24.9085,20.0001,NaN,NaN,NaN,NaN,""
13290.9,24.9128,19.9999,NaN,NaN,NaN,NaN,""
13318.8,24.9171,19.9996,NaN,NaN,NaN,NaN,""
13339.2,24.8913,19.9995,NaN,NaN,NaN,NaN,""
13354.1,24.8868,19.9997,NaN,NaN,NaN,NaN,""
13380.8,24.9219,20,NaN,NaN,NaN,NaN,""
13391.3,24.8972,20.0001,NaN,NaN,NaN,NaN,""
13401.7,24.8726,20.0001,NaN,NaN,NaN,NaN,""
13449,24.8932,20,NaN,NaN,NaN,NaN,""
13487.8,24.9068,20,NaN,NaN,NaN,NaN,""
13504.4,24.8497,20,NaN,NaN,NaN,NaN,""
13514.3,24.8543,20,NaN,NaN,NaN,NaN,""
13533.7,24.9022,19.9999,NaN,NaN,NaN,NaN,""
13560.9,24.8875,19.9998,NaN,NaN,NaN,NaN,""
13575.3,24.8298,19.9998,NaN,NaN,NaN,NaN,""
13591.3,24.8524,19.9999,NaN,NaN,NaN,NaN,""
13607.2,24.875,20,NaN,NaN,NaN,NaN,""
13636.7,24.8503,20.0003,NaN,NaN,NaN,NaN,""
13654.3,24.8656,20.0001,NaN,NaN,NaN,NaN,""
13683.2,24.914,19.9997,NaN,NaN,NaN,NaN,""
13706.9,24.8952,19.9998,NaN,NaN,NaN,NaN,""
13719,24.8716,19.9999,NaN,NaN,NaN,NaN,""
13730.6,24.9074,19.9999,NaN,NaN,NaN,NaN,""
13738.1,24.8899,19.9999,NaN,NaN,NaN,NaN,""
13749.5,24.8391,19.9999,NaN,NaN,NaN,NaN,""
13756.3,24.9169,19.9999,NaN,NaN,NaN,NaN,""
13781.6,24.8997,19.9998,NaN,NaN,NaN,NaN,""
13800.1,24.9058,20,NaN,NaN,NaN,NaN,""
13818.6,24.9697,20.0002,NaN,NaN,NaN,NaN,""
13831.5,24.8307,20.0001,NaN,NaN,NaN,NaN,""
13838.7,24.7844,20,NaN,NaN,NaN,NaN,""
13847.2,24.8285,20,NaN,NaN,NaN,NaN,""
13868.4,24.8398,20,NaN,NaN,NaN,NaN,""
13887.2,24.8498,20.0002,NaN,NaN,NaN,NaN,""
13902.4,24.8572,20.0001,NaN,NaN,NaN,NaN,""
13917.5,24.8642,19.9999,NaN,NaN,NaN,NaN,""
13944.7,24.8767,20.0001,NaN,NaN,NaN,NaN,""
13950.1,24.922,20.0001,NaN,NaN,NaN,NaN,""
13955.5,24.9673,20.0001,NaN,NaN,NaN,NaN,""
13969,24.8922,20,NaN,NaN,NaN,NaN,""
13985.6,24.8437,20,NaN,NaN,NaN,NaN,""
14034.4,24.9096,19.9998,NaN,NaN,NaN,NaN,""
14076.1,24.9204,19.9998,NaN,NaN,NaN,NaN,""
14117.8,24.9313,19.9999,NaN,NaN,NaN,NaN,""
14163.8,24.9265,20,NaN,NaN,NaN,NaN,""
14215.7,24.9211,19.9998,NaN,NaN,NaN,NaN,""
14258.6,24.9166,20.0005,NaN,NaN,NaN,NaN,""
14273.6,24.9149,20.0002,NaN,NaN,NaN,NaN,""
14288.7,24.9096,20,NaN,NaN,NaN,NaN,""
14313,24.9012,20.0002,NaN,NaN,NaN,NaN,""
14343.1,24.8907,19.9996,NaN,NaN,NaN,NaN,""
14379.2,24.8781,20,NaN,NaN,NaN,NaN,""
14413.8,24.8661,20.0001,NaN,NaN,NaN,NaN,""
14439.7,24.8762,20.0001,NaN,NaN,NaN,NaN,""
14463.1,24.9217,20,NaN,NaN,NaN,NaN,""
14465.4,24.9532,20,NaN,NaN,NaN,NaN,""
14494.3,24.9234,19.9999,NaN,NaN,NaN,NaN,""
14515.5,24.9173,19.9998,NaN,NaN,NaN,NaN,""
14531.7,24.9126,19.9995,NaN,NaN,NaN,NaN,""
14538.7,24.9746,19.9994,NaN,NaN,NaN,NaN,""
14545.7,25.0366,19.9994,NaN,NaN,NaN,NaN,""
14555.6,24.8868,19.9995,NaN,NaN,NaN,NaN,""
14574.7,24.906,19.9997,NaN,NaN,NaN,NaN,""
14601,24.8905,20,NaN,NaN,NaN,NaN,""
14617,24.9039,20.0001,NaN,NaN,NaN,NaN,""
14651.4,24.9599,20.0002,NaN,NaN,NaN,NaN,""
14662.3,24.916,20.0003,NaN,NaN,NaN,NaN,""
14668.7,24.9379,20.0002,NaN,NaN,NaN,NaN,""
14675.2,24.9776,20.0001,NaN,NaN,NaN,NaN,""
14687,24.9573,19.9999,NaN,NaN,NaN,NaN,""
14706.8,24.9232,19.9998,NaN,NaN,NaN,NaN,""
14725.3,24.9256,19.9998,NaN,NaN,NaN,NaN,""
14753.4,24.9292,20,NaN,NaN,NaN,NaN,""
14780.8,24.9328,19.9996,NaN,NaN,NaN,NaN,""
14804.8,24.9358,20,NaN,NaN,NaN,NaN,""
14839.5,24.9403,19.9996,NaN,NaN,NaN,NaN,""
14878.8,24.9454,20,NaN,NaN,NaN,NaN,""
14899,24.9434,20.0001,NaN,NaN,NaN,NaN,""
14931.6,24.9403,20.0003,NaN,NaN,NaN,NaN,""
14952.5,24.9383,19.9998,NaN,NaN,NaN,NaN,""
14984.9,24.9352,19.9995,NaN,NaN,NaN,NaN,""
15005.5,24.9333,20.0001,NaN,NaN,NaN,NaN,""
15039.5,24.93,19.9999,NaN,NaN,NaN,NaN,""
15056.1,24.9278,20.0001,NaN,NaN,NaN,NaN,""
15072.7,24.924,20.0002,NaN,NaN,NaN,NaN,""
15117.2,24.9138,19.9999,NaN,NaN,NaN,NaN,""
15153,24.9055,19.9998,NaN,NaN,NaN,NaN,""
15170.5,24.9014,20.0004,NaN,NaN,NaN,NaN,""
15183,24.9002,20.0003,NaN,NaN,NaN,NaN,""
15195.4,24.9054,20.0002,NaN,NaN,NaN,NaN,""
15216.7,24.9142,20.0004,NaN,NaN,NaN,NaN,""
15257.2,24.931,19.9997,NaN,NaN,NaN,NaN,""
15260.7,25.0315,19.9997,NaN,NaN,NaN,NaN,""
15264.2,25.132,19.9997,NaN,NaN,NaN,NaN,""
15275.1,24.9402,19.9997,NaN,NaN,NaN,NaN,""
15290.1,24.9323,19.9997,NaN,NaN,NaN,NaN,""
15308.1,24.9228,20.0001,NaN,NaN,NaN,NaN,""
15324,24.9066,20.0002,NaN,NaN,NaN,NaN,""
15339.8,24.8888,20.0003,NaN,NaN,NaN,NaN,""
15353.5,24.9343,20.0001,NaN,NaN,NaN,NaN,""
15363.8,24.9968,20,NaN,NaN,NaN,NaN,""
15371,25.0534,20,NaN,NaN,NaN,NaN,""
15378.2,25.11,20,NaN,NaN,NaN,NaN,""
15385,25.013,20.0001,NaN,NaN,NaN,NaN,""
15408,24.9908,20.0002,NaN,NaN,NaN,NaN,""
15422.8,24.9599,20,NaN,NaN,NaN,NaN,""
15437.5,24.929,19.9998,NaN,NaN,NaN,NaN,""
15457.2,24.9516,19.9998,NaN,NaN,NaN,NaN,""
15484.9,24.9834,20.0001,NaN,NaN,NaN,NaN,""
15511.5,24.9796,20.0001,NaN,NaN,NaN,NaN,""
15575.1,24.9706,19.9998,NaN,NaN,NaN,NaN,""
15602.2,24.9668,19.9994,NaN,NaN,NaN,NaN,""
15623.5,24.9638,19.9999,NaN,NaN,NaN,NaN,""
15649.1,24.9602,20.0002,NaN,NaN,NaN,NaN,""
15700.9,24.9529,19.9999,NaN,NaN,NaN,NaN,""
15738.6,24.9475,20,NaN,NaN,NaN,NaN,""
15763.1,24.9441,19.9997,NaN,NaN,NaN,NaN,""
15780.2,24.9416,20.0002,NaN,NaN,NaN,NaN,""
15781.2,24.9415,20.0001,NaN,NaN,NaN,NaN,""
15820.7,24.9332,19.9998,NaN,NaN,NaN,NaN,""
15870.7,24.9227,20,NaN,NaN,NaN,NaN,""
15916.2,24.9131,20.0001,NaN,NaN,NaN,NaN,""
15921.5,25.0156,20.0002,NaN,NaN,NaN,NaN,""
15927.8,24.9745,20.0001,NaN,NaN,NaN,NaN,""
15934.1,24.9333,20,NaN,NaN,NaN,NaN,""
15949.9,24.9341,19.9997,NaN,NaN,NaN,NaN,""
15961,24.9221,19.9998,NaN,NaN,NaN,NaN,""
15972.1,24.8748,19.9998,NaN,NaN,NaN,NaN,""
15979.2,24.9257,19.9995,NaN,NaN,NaN,NaN,""
15984.3,24.9376,19.9993,NaN,NaN,NaN,NaN,""
15991.9,24.894,19.9993,NaN,NaN,NaN,NaN,""
15999.5,24.872,19.9995,NaN,NaN,NaN,NaN,""
16008.7,24.9227,19.9997,NaN,NaN,NaN,NaN,""
16023.7,25.0061,19.9999,NaN,NaN,NaN,NaN,""
16038.5,25.0323,20,NaN,NaN,NaN,NaN,""
16054.7,25.061,20,NaN,NaN,NaN,NaN,""
16084.4,24.9976,19.9999,NaN,NaN,NaN,NaN,""
16102.2,24.9515,19.9998,NaN,NaN,NaN,NaN,""
16115.7,24.9679,19.9998,NaN,NaN,NaN,NaN,""
16119.6,24.998,19.9999,NaN,NaN,NaN,NaN,""
16128,24.941,19.9999,NaN,NaN,NaN,NaN,""
16147.6,24.9913,19.9999,NaN,NaN,NaN,NaN,""
16180,24.9642,20,NaN,NaN,NaN,NaN,""
16201.9,24.9873,20.0001,NaN,NaN,NaN,NaN,""
16215.6,24.9359,20.0001,NaN,NaN,NaN,NaN,""
16220.8,24.9326,20.0001,NaN,NaN,NaN,NaN,""
16235.4,24.991,20,NaN,NaN,NaN,NaN,""
16249.4,24.9183,20,NaN,NaN,NaN,NaN,""
16272.5,24.9522,20,NaN,NaN,NaN,NaN,""
16300.3,24.9226,19.9999,NaN,NaN,NaN,NaN,""
16325,24.9828,19.9999,NaN,NaN,NaN,NaN,""
16340.4,24.987,20,NaN,NaN,NaN,NaN,""
16367,24.9557,20.0001,NaN,NaN,NaN,NaN,""
16378.4,24.9531,19.9999,NaN,NaN,NaN,NaN,""
16389.7,24.9528,19.9996,NaN,NaN,NaN,NaN,""
16418.5,24.9521,20,NaN,NaN,NaN,NaN,""
16443.8,24.9821,19.9999,NaN,NaN,NaN,NaN,""
16462.4,24.9964,19.9999,NaN,NaN,NaN,NaN,""
16475.1,24.9633,19.9999,NaN,NaN,NaN,NaN,""
16487.7,24.9397,19.9999,NaN,NaN,NaN,NaN,""
16539.9,24.9748,20,NaN,NaN,NaN,NaN,""
16548.6,24.9787,20,NaN,NaN,NaN,NaN,""
16576.7,24.9914,19.9995,NaN,NaN,NaN,NaN,""
16601,24.9327,19.9996,NaN,NaN,NaN,NaN,""
16618.1,24.8447,19.9997,NaN,NaN,NaN,NaN,""
16632.6,24.8809,19.9998,NaN,NaN,NaN,NaN,""
16647.1,24.9171,19.9998,NaN,NaN,NaN,NaN,""
16667.9,24.9251,19.9998,NaN,NaN,NaN,NaN,""
16688.8,25.0552,19.9998,NaN,NaN,NaN,NaN,""
16719.8,25.0651,19.9998,NaN,NaN,NaN,NaN,""
16773.3,24.9789,19.9998,NaN,NaN,NaN,NaN,""
16794.2,25.009,19.9998,NaN,NaN,NaN,NaN,""
16834.7,24.9938,19.9998,NaN,NaN,NaN,NaN,""
16868.8,24.981,19.9999,NaN,NaN,NaN,NaN,"Reaction start. Measuring position. Signal correct"
16869.2,24.9808,19.9999,0.000262876,0.000126334,6.13192e-05,2.94691e-05,""
17171.9,24.9759,20.0001,0.000377,0.0967634,8.79404e-05,0.0225714,""
17372.2,24.9445,20.0001,0.000552968,0.178429,0.000128987,0.041621,""
[...]
186233,24.3864,19.9995,0.00198477,978.619,0.000462974,228.276,""
186645,24.374,19.9997,0.00197991,979.436,0.00046184,228.467,""
187150,24.387,19.9997,0.00197476,980.435,0.000460639,228.7,""
187776,24.3576,19.9999,0.00196766,981.669,0.000458982,228.987,""
188250,24.4268,19.9999,0.00196257,982.6,0.000457796,229.205,""
188637,24.3855,19.9999,0.00195795,983.359,0.000456717,229.382,""
189145,24.409,20.0001,0.0019521,984.352,0.000455352,229.613,""
189831,24.3954,20,0.00194486,985.689,0.000453665,229.925,""
190429,24.3975,19.9999,0.00193818,986.849,0.000452105,230.196,""
190923,24.4005,19.9998,0.001933,987.805,0.000450897,230.419,""
191464,24.4017,20.0005,0.00192723,988.851,0.000449551,230.663,""
191867,24.4107,19.9997,0.00192298,989.627,0.00044856,230.844,""
192445,24.4048,20,0.00191715,990.737,0.000447201,231.103,""
193137,24.417,19.9997,0.00190993,992.06,0.000445516,231.411,""
193454,24.4091,19.9997,0.00190673,992.665,0.000444771,231.552,""
193805,24.4019,20.0001,0.00190335,993.333,0.000443982,231.708,""
194137,24.4056,19.9992,0.0019005,993.966,0.000443318,231.856,""
194550,24.3914,19.9997,0.00189599,994.75,0.000442266,232.039,""
194909,24.3995,19.9999,0.00189258,995.429,0.000441469,232.197,""
195248,24.4077,19.9998,0.00188898,996.07,0.000440631,232.347,""
195715,24.432,20,0.00188502,996.952,0.000439707,232.552,""
196209,24.4062,20.0001,0.00188014,997.882,0.000438569,232.769,""
196713,24.4108,19.9999,0.00187507,998.828,0.000437384,232.99,""
197073,24.3938,19.9998,0.00187119,999.501,0.00043648,233.147,""
197521,24.4295,19.9998,0.00186716,1000.34,0.00043554,233.342,""
197969,24.3804,19.9999,0.00186292,1001.17,0.000434552,233.537,""
198428,24.3868,20,0.00185852,1002.03,0.000433524,233.736,""
198879,24.376,19.9998,0.00185466,1002.87,0.000432625,233.932,""
199497,24.3868,20,0.00184927,1004.01,0.000431368,234.199,""
200040,24.398,19.9999,0.00184413,1005.01,0.000430167,234.433,""
200455,24.3773,19.9998,0.00184013,1005.78,0.000429235,234.611,""
200960,24.4136,19.9994,0.00183575,1006.71,0.000428213,234.828,""
201305,24.3991,19.9995,0.00183296,1007.34,0.000427562,234.975,""
201975,24.4304,19.9996,0.00182715,1008.57,0.000426207,235.261,""
202315,24.4253,19.9998,0.00182437,1009.19,0.00042556,235.406,""
202670,24.3794,20.0005,0.00182124,1009.83,0.000424829,235.557,""
203144,24.3997,20,0.00181705,1010.7,0.000423851,235.758,""
203647,24.4251,20.0001,0.00181263,1011.61,0.000422819,235.971,""
204160,24.4139,19.9999,0.0018077,1012.54,0.00042167,236.188,""
204700,24.4175,20.0002,0.00180301,1013.51,0.000420575,236.415,""
205143,24.4195,20.0001,0.00179959,1014.31,0.000419778,236.601,""
205672,24.4089,20,0.00179541,1015.26,0.000418804,236.823,""
206025,24.4602,19.9998,0.00179231,1015.89,0.000418081,236.971,""
206377,24.3624,19.9996,0.0017892,1016.52,0.000417355,237.118,""
206882,24.4227,20,0.00178525,1017.43,0.000416434,237.328,""
207407,24.4072,20,0.00178082,1018.36,0.0004154,237.547,""
207786,24.4039,19.9995,0.00177814,1019.04,0.000414774,237.704,""
208216,24.3591,19.9996,0.00177438,1019.8,0.000413899,237.882,""
208588,24.4071,19.9999,0.00177108,1020.46,0.000413128,238.036,""
208950,24.3812,20.0001,0.0017681,1021.1,0.000412432,238.185,""
209282,24.4127,20,0.00176564,1021.69,0.00041186,238.322,""
209693,24.4189,20.0002,0.00176195,1022.41,0.000410998,238.491,""
210130,24.3856,20,0.00175824,1023.18,0.000410133,238.671,""
210537,24.442,20.0001,0.00175526,1023.9,0.000409437,238.838,""
210916,24.3986,20.0001,0.00175207,1024.56,0.000408694,238.992,""
211382,24.4063,19.9997,0.00174845,1025.38,0.00040785,239.183,""
211810,24.3937,19.9996,0.00174551,1026.12,0.000407164,239.357,""
212172,24.3916,19.9996,0.00174189,1026.75,0.000406319,239.504,""
212522,24.3955,19.9999,0.00173905,1027.36,0.000405656,239.646,""
212909,24.4105,19.9999,0.00173567,1028.04,0.000404868,239.803,""
213220,24.3813,19.9998,0.00173357,1028.58,0.000404379,239.929,""
213754,24.3796,20.0003,0.00172894,1029.5,0.000403298,240.145,""
214287,24.4092,20,0.00172496,1030.42,0.000402371,240.36,""
214660,24.4021,19.9997,0.0017218,1031.06,0.000401634,240.51,""
215026,24.3616,20.0001,0.00171868,1031.69,0.000400906,240.656,""
215436,24.3855,19.9999,0.00171513,1032.4,0.000400076,240.82,""
215922,24.3784,19.9991,0.00171149,1033.23,0.000399227,241.015,""
216409,24.3909,19.9998,0.00170789,1034.06,0.000398389,241.209,""
216746,24.3653,19.9994,0.00170523,1034.64,0.000397767,241.343,""
217181,24.3644,19.9997,0.00170164,1035.38,0.00039693,241.516,""
217698,24.3666,19.9997,0.00169793,1036.26,0.000396064,241.721,""
218060,24.4364,19.9999,0.00169518,1036.87,0.000395424,241.864,""
218393,24.3524,20.0001,0.00169282,1037.44,0.000394873,241.996,""
218718,24.3437,19.9999,0.00168997,1037.99,0.000394209,242.124,""
219117,24.3659,19.9997,0.00168686,1038.66,0.000393482,242.281,""
219600,24.3722,19.9998,0.00168385,1039.47,0.000392781,242.471,""
220029,24.3652,19.9999,0.0016795,1040.19,0.000391765,242.639,""
220542,24.3829,20.0001,0.00167566,1041.06,0.000390869,242.84,""
221103,24.3447,19.9998,0.00167125,1041.99,0.000389841,243.059,""
221638,24.3486,19.9997,0.00166754,1042.89,0.000388977,243.267,""
222027,24.3766,19.9999,0.00166413,1043.54,0.000388181,243.419,""
222578,24.3659,19.9999,0.00165985,1044.45,0.000387182,243.632,""
222979,24.3204,20,0.00165645,1045.12,0.000386389,243.787,""
223441,24.3549,19.9999,0.00165314,1045.88,0.000385616,243.966,""
223890,24.3565,19.9997,0.00164936,1046.62,0.000384734,244.139,""
224380,24.3667,19.9999,0.00164546,1047.43,0.000383826,244.327,""
224893,24.3586,19.9993,0.00164164,1048.27,0.000382935,244.524,""
225304,24.3812,20,0.00163825,1048.95,0.000382145,244.681,""
225723,24.3452,20,0.00163479,1049.63,0.000381336,244.841,""
226204,24.3562,20,0.00163121,1050.42,0.000380501,245.024,""
226651,24.3074,20,0.00162792,1051.15,0.000379735,245.194,""
227028,24.3699,19.9998,0.00162491,1051.76,0.000379033,245.337,""
227552,24.3563,19.9998,0.0016208,1052.61,0.000378073,245.535,""
227983,24.3441,19.9998,0.00161762,1053.31,0.000377332,245.698,""
228450,24.3738,19.9998,0.00161401,1054.06,0.000376489,245.874,""
228883,24.3568,19.9997,0.00161122,1054.76,0.000375838,246.037,""
229457,24.3745,19.9998,0.00160627,1055.68,0.000374684,246.252,""
229868,24.3577,19.9998,0.00160286,1056.34,0.000373889,246.406,""
230253,24.3585,20.0002,0.00159992,1056.96,0.000373202,246.55,""
230660,24.365,19.9999,0.00159721,1057.61,0.00037257,246.702,""
231084,24.3598,19.9999,0.00159358,1058.29,0.000371725,246.86,""
231553,24.3423,20.0002,0.00159045,1059.03,0.000370994,247.034,""
232057,24.3477,20.0001,0.00158633,1059.83,0.000370033,247.221,""
232536,24.3084,19.9999,0.00158241,1060.59,0.000369118,247.398,""
233010,24.3345,19.9999,0.00157861,1061.34,0.000368232,247.572,""
233336,24.3513,20,0.00157615,1061.86,0.000367657,247.692,""
233662,24.3146,20,0.0015735,1062.37,0.00036704,247.812,""
234043,24.3319,20,0.00157075,1062.97,0.000366399,247.952,""
234430,24.3408,20.0003,0.00156781,1063.58,0.000365713,248.093,""
234882,24.3201,19.9999,0.00156426,1064.28,0.000364884,248.259,""
235310,24.3264,19.9996,0.00156105,1064.95,0.000364135,248.414,""
235854,24.3335,19.9999,0.00155704,1065.8,0.0003632,248.612,""
236246,24.3171,20,0.00155393,1066.41,0.000362475,248.755,""
236895,24.2986,19.9998,0.00154874,1067.42,0.000361265,248.989,""
237295,24.2958,19.9998,0.00154547,1068.04,0.000360501,249.134,""
237613,24.3391,19.9999,0.0015428,1068.53,0.000359878,249.248,""
238027,24.2998,20.0001,0.00154007,1069.17,0.000359242,249.397,""
238532,24.3157,19.9998,0.001536,1069.94,0.000358293,249.579,""
238956,24.3022,20,0.0015329,1070.59,0.00035757,249.73,""
239278,24.2645,19.9998,0.00153067,1071.09,0.00035705,249.845,""
239620,24.2953,19.9998,0.00152785,1071.61,0.00035639,249.967,""
239914,24.3075,19.9997,0.00152591,1072.06,0.000355938,250.072,""
240461,24.2828,19.9997,0.00152202,1072.89,0.000355032,250.266,""
240874,24.3072,20.0002,0.0015187,1073.52,0.000354258,250.413,""
241323,24.2663,19.9999,0.00151576,1074.2,0.000353572,250.572,""
241782,24.3021,19.9998,0.00151237,1074.9,0.000352779,250.734,""
242224,24.2904,19.9997,0.00150903,1075.56,0.000352,250.89,""
242727,24.2894,20,0.00150556,1076.32,0.000351192,251.066,""
243132,24.3297,19.9999,0.00150202,1076.93,0.000350367,251.209,""
243566,24.3031,20.0001,0.00149887,1077.58,0.00034963,251.36,""
244091,24.294,19.9998,0.00149497,1078.37,0.000348721,251.544,""
244502,24.3027,19.9998,0.00149209,1078.98,0.000348051,251.687,""
245012,24.2907,20.0001,0.00148838,1079.74,0.000347183,251.864,""
245433,24.2876,19.9994,0.00148528,1080.37,0.000346462,252.01,""
245905,24.2954,19.9992,0.00148152,1081.07,0.000345584,252.174,""
246238,24.2871,19.9998,0.0014796,1081.56,0.000345137,252.288,""
246576,24.3014,19.9999,0.00147692,1082.06,0.000344512,252.405,""
247026,24.2838,19.9996,0.00147297,1082.72,0.00034359,252.56,""
247492,24.2799,19.9997,0.00146995,1083.41,0.000342885,252.72,""
247936,24.4666,20.0001,0.00146691,1084.06,0.000342177,252.872,""
248434,24.3079,20.0007,0.00146296,1084.79,0.000341256,253.042,""
248835,24.2956,19.9994,0.00145955,1085.38,0.000340459,253.179,""
249246,24.3038,19.9999,0.00145667,1085.98,0.000339789,253.319,""
249534,24.3024,19.9997,0.00145418,1086.4,0.000339208,253.416,""
250035,24.2896,19.9997,0.00145068,1087.12,0.000338391,253.586,""
250421,24.2725,19.9994,0.00144759,1087.68,0.00033767,253.717,""
250869,24.3093,19.9998,0.00144453,1088.33,0.000336957,253.868,""
251448,24.2782,20.0001,0.00144026,1089.17,0.00033596,254.062,""
251892,24.2897,20,0.00143718,1089.8,0.000335242,254.212,""
252433,24.2964,19.9997,0.00143338,1090.58,0.000334355,254.393,""
252851,24.2916,19.9997,0.00143012,1091.18,0.000333595,254.532,""
253310,24.278,19.9996,0.00142659,1091.84,0.000332771,254.685,""
253718,24.2987,19.9991,0.00142328,1092.42,0.000331999,254.821,""
254107,24.2878,19.9998,0.00142098,1092.97,0.000331463,254.95,""
254497,24.289,19.9997,0.00141786,1093.52,0.000330734,255.079,""
255006,24.2646,19.9996,0.00141428,1094.24,0.0003299,255.247,""
255581,24.2491,19.9996,0.00141023,1095.06,0.000328956,255.436,""
256030,24.2876,20,0.00140723,1095.69,0.000328254,255.584,""
256338,24.3631,19.9996,0.00140529,1096.12,0.000327802,255.685,""
256839,24.2996,19.9999,0.00140131,1096.82,0.000326873,255.849,""
257369,24.3582,20.0001,0.00139739,1097.57,0.00032596,256.022,""
257889,24.3398,19.9995,0.00139394,1098.29,0.000325155,256.191,""
258362,24.3406,19.9998,0.00139011,1098.95,0.000324263,256.345,""
258748,24.334,19.9997,0.00138743,1099.49,0.000323637,256.47,""
259280,24.3634,19.9996,0.00138338,1100.22,0.000322692,256.642,""
259574,24.3667,19.9997,0.0013814,1100.63,0.000322229,256.737,""
259939,24.3236,19.9999,0.00137881,1101.13,0.000321627,256.854,""
260442,24.3699,20.0001,0.00137541,1101.83,0.000320832,257.016,""
260762,24.3574,20.0001,0.00137293,1102.27,0.000320255,257.119,""
261227,24.3896,20.0002,0.00136993,1102.9,0.000319554,257.267,""
261679,24.399,19.9999,0.00136654,1103.52,0.000318764,257.411,""
262196,24.3983,19.9998,0.001363,1104.23,0.000317938,257.576,""
262519,24.3452,19.9995,0.00136083,1104.67,0.000317432,257.679,""
262935,24.4049,19.9998,0.00135773,1105.23,0.000316708,257.81,""
263279,24.4236,20.0002,0.00135546,1105.7,0.00031618,257.919,""
263703,24.4371,20,0.00135266,1106.27,0.000315526,258.053,""
264155,24.4274,20,0.00134955,1106.89,0.000314802,258.196,""
264525,24.4146,19.9996,0.0013468,1107.38,0.000314158,258.312,""
264938,24.4405,19.9993,0.00134361,1107.94,0.000313415,258.442,""
265264,24.409,19.9998,0.00134126,1108.38,0.000312867,258.544,""
265665,24.4463,19.9999,0.00133859,1108.91,0.000312245,258.669,""
266108,24.4138,19.9997,0.00133538,1109.51,0.000311494,258.807,""
266469,24.4504,19.9999,0.00133329,1109.99,0.000311007,258.92,""
266824,24.4105,19.9999,0.00133053,1110.46,0.000310364,259.03,""
267325,24.4852,20.0004,0.00132721,1111.13,0.000309589,259.185,""
267792,24.4217,19.9997,0.00132391,1111.75,0.000308821,259.33,""
268198,24.4509,19.9999,0.00132114,1112.28,0.000308174,259.455,""
268697,24.4449,20,0.00131711,1112.94,0.000307233,259.609,""
269234,24.4479,19.9996,0.00131349,1113.65,0.000306389,259.773,""
269686,24.4334,20.0003,0.00131009,1114.24,0.000305597,259.911,""
270384,24.4502,19.9999,0.00130524,1115.15,0.000304465,260.124,""
270760,24.4931,20.0001,0.0013028,1115.64,0.000303895,260.239,""
271228,24.4782,20.0001,0.00129925,1116.25,0.000303068,260.381,""
271619,24.4917,19.9994,0.00129666,1116.76,0.000302462,260.499,""
272175,24.4549,19.9995,0.00129226,1117.48,0.000301436,260.667,""
272610,24.4841,19.9998,0.00128975,1118.04,0.00030085,260.798,""
273126,24.5074,19.9999,0.00128611,1118.71,0.000300002,260.953,""
273402,24.4666,20,0.00128472,1119.06,0.000299678,261.036,""
273915,24.4699,19.9997,0.00128101,1119.72,0.000298812,261.189,""
274418,24.4697,19.9995,0.00127763,1120.36,0.000298023,261.339,""
274853,24.4317,20.0005,0.00127459,1120.92,0.000297315,261.469,""
275206,24.4264,20,0.00127214,1121.37,0.000296743,261.574,""
275666,24.4631,19.9996,0.00126899,1121.95,0.000296008,261.71,""
276431,24.4459,20.0003,0.00126381,1122.92,0.000294801,261.936,""
276922,24.4485,20.0003,0.00126052,1123.54,0.000294032,262.081,""
277412,24.4816,20,0.00125693,1124.16,0.000293196,262.225,""
277821,24.49,20.0001,0.00125364,1124.67,0.000292427,262.344,""
278134,24.4083,19.9994,0.00125116,1125.06,0.00029185,262.436,""
278681,24.4529,20,0.00124738,1125.74,0.000290968,262.595,""
279125,24.4034,19.9996,0.00124484,1126.3,0.000290374,262.724,""
279580,24.4865,19.9998,0.00124168,1126.86,0.000289639,262.856,""
279955,24.5227,20,0.00123943,1127.33,0.000289114,262.965,""
280284,24.6653,20.0001,0.00123709,1127.74,0.000288568,263.06,""
280686,24.6086,19.9998,0.00123486,1128.23,0.000288048,263.176,""
281131,24.6844,19.9997,0.00123165,1128.78,0.000287299,263.303,""
281497,24.7356,19.9999,0.00122926,1129.23,0.000286741,263.409,""
282019,24.7551,19.9997,0.001226,1129.87,0.00028598,263.558,""
282541,24.7208,20.0001,0.00122294,1130.51,0.000285268,263.707,""
282997,24.6746,19.9998,0.00121964,1131.07,0.000284498,263.837,""
283395,24.6963,20.0001,0.00121696,1131.55,0.000283872,263.95,""
283756,24.6944,20,0.00121461,1131.99,0.000283323,264.053,""
284179,24.6852,20,0.00121185,1132.51,0.00028268,264.172,""
284683,24.715,19.9996,0.00120871,1133.12,0.000281948,264.314,""
285240,24.6792,19.9994,0.0012048,1133.79,0.000281035,264.471,""
285698,24.6864,19.9998,0.0012019,1134.34,0.000280359,264.6,""
286195,24.6982,19.9999,0.00119855,1134.94,0.000279579,264.739,""
286682,24.7326,19.9997,0.00119545,1135.52,0.000278854,264.875,""
287035,24.6823,19.9998,0.0011931,1135.94,0.000278308,264.973,""
287390,24.7228,19.9998,0.00119076,1136.36,0.000277761,265.072,""
287853,24.7234,20,0.00118764,1136.91,0.000277033,265.201,""
288475,24.6838,20.0001,0.00118348,1137.65,0.000276062,265.373,""
288894,24.7423,19.9997,0.0011808,1138.15,0.000275437,265.488,""
289415,24.7614,19.9996,0.00117804,1138.76,0.000274793,265.631,""
289718,24.7495,20.0001,0.00117574,1139.12,0.000274258,265.715,""
290172,24.7962,20.0001,0.00117299,1139.65,0.000273617,265.839,""
290549,24.6961,20.0005,0.00117077,1140.09,0.000273097,265.942,""
291125,24.7217,20.0003,0.00116676,1140.77,0.000272162,266.099,""
291686,24.7329,19.9998,0.00116314,1141.42,0.000271318,266.251,""
292165,24.6829,19.9998,0.0011599,1141.98,0.000270562,266.381,""
292480,24.6619,19.9998,0.00115798,1142.34,0.000270114,266.467,""
292772,24.693,20,0.00115587,1142.68,0.000269622,266.545,""
293114,24.6627,20.0001,0.00115344,1143.07,0.000269056,266.637,""
293457,24.629,19.9996,0.00115115,1143.47,0.00026852,266.729,""
293911,24.658,20.0001,0.00114833,1143.99,0.000267863,266.851,""
294068,24.646,19.9999,0.00114716,1144.17,0.00026759,266.893,""
294069,24.6461,19.9999,NaN,NaN,NaN,NaN,"Ampoule removed"
294116,24.6506,19.9997,NaN,NaN,NaN,NaN,""
294140,24.6528,19.9994,NaN,NaN,NaN,NaN,""
294156,24.6004,19.9992,NaN,NaN,NaN,NaN,""
294163,24.6182,19.9992,NaN,NaN,NaN,NaN,""
294178,24.6573,19.9995,NaN,NaN,NaN,NaN,""
294189,24.6532,19.9997,NaN,NaN,NaN,NaN,""
294221,24.6403,19.9999,NaN,NaN,NaN,NaN,""
294228,24.6376,20,NaN,NaN,NaN,NaN,""
294245,24.7008,20.0003,NaN,NaN,NaN,NaN,""
294256,24.6816,20.0002,NaN,NaN,NaN,NaN,""
294271,24.6585,20,NaN,NaN,NaN,NaN,""
294285,24.6719,20,NaN,NaN,NaN,NaN,""
294301,24.6969,19.9999,NaN,NaN,NaN,NaN,""
294324,24.6229,19.9999,NaN,NaN,NaN,NaN,""
294336,24.7069,19.9999,NaN,NaN,NaN,NaN,""
294352,24.6505,19.9998,NaN,NaN,NaN,NaN,""
294380,24.6669,19.9998,NaN,NaN,NaN,NaN,""
294390,24.6478,19.9998,NaN,NaN,NaN,NaN,""
294400,24.6288,19.9998,NaN,NaN,NaN,NaN,""
294423,24.6513,19.9997,NaN,NaN,NaN,NaN,""
294484,24.6263,19.9996,NaN,NaN,NaN,NaN,""
294490,24.639,19.9996,NaN,NaN,NaN,NaN,""
294502,24.6638,19.9998,NaN,NaN,NaN,NaN,""
294526,24.6445,20.0003,NaN,NaN,NaN,NaN,""
294538,24.6739,20.0002,NaN,NaN,NaN,NaN,""
294550,24.7032,20.0002,NaN,NaN,NaN,NaN,""
294562,24.6423,20.0001,NaN,NaN,NaN,NaN,""
294577,24.6779,20,NaN,NaN,NaN,NaN,""
294612,24.6777,19.9998,NaN,NaN,NaN,NaN,""
294635,24.6775,19.9996,NaN,NaN,NaN,NaN,""
294661,24.6705,20,NaN,NaN,NaN,NaN,""
294687,24.6403,20.0004,NaN,NaN,NaN,NaN,""
294713,24.6229,20,NaN,NaN,NaN,NaN,""
294739,24.6489,19.9996,NaN,NaN,NaN,NaN,""
294766,24.6445,19.9993,NaN,NaN,NaN,NaN,""
294781,24.642,19.9997,NaN,NaN,NaN,NaN,""
294787,24.6409,19.9999,NaN,NaN,NaN,NaN,""
294803,24.6383,20.0003,NaN,NaN,NaN,NaN,""
294839,24.6366,20.0001,NaN,NaN,NaN,NaN,""
294875,24.6509,19.9999,NaN,NaN,NaN,NaN,""
294881,24.6535,19.9999,NaN,NaN,NaN,NaN,""
294889,24.6114,19.9999,NaN,NaN,NaN,NaN,""
294928,24.6479,20,NaN,NaN,NaN,NaN,""
294950,24.6631,19.9997,NaN,NaN,NaN,NaN,""
294972,24.6709,19.9995,NaN,NaN,NaN,NaN,""
294987,24.6655,19.9996,NaN,NaN,NaN,NaN,""
294999,24.6129,19.9998,NaN,NaN,NaN,NaN,""
295014,24.6304,19.9998,NaN,NaN,NaN,NaN,""
295035,24.6553,19.9998,NaN,NaN,NaN,NaN,""
295063,24.6587,19.9997,NaN,NaN,NaN,NaN,""
295089,24.6606,19.9997,NaN,NaN,NaN,NaN,""
295129,24.6263,19.9997,NaN,NaN,NaN,NaN,""
295151,24.6299,20,NaN,NaN,NaN,NaN,""
295188,24.6409,20.0005,NaN,NaN,NaN,NaN,""
295197,24.6433,20.0003,NaN,NaN,NaN,NaN,""
295215,24.6967,20,NaN,NaN,NaN,NaN,""
295230,24.6367,19.9998,NaN,NaN,NaN,NaN,""
295246,24.6371,19.9997,NaN,NaN,NaN,NaN,""
295261,24.6375,19.9997,NaN,NaN,NaN,NaN,""
295286,24.6828,19.9997,NaN,NaN,NaN,NaN,""
295308,24.6378,19.9998,NaN,NaN,NaN,NaN,""
295329,24.6293,19.9998,NaN,NaN,NaN,NaN,""
295351,24.6208,19.9998,NaN,NaN,NaN,NaN,""
295382,24.6643,19.9999,NaN,NaN,NaN,NaN,""
295420,24.613,19.9999,NaN,NaN,NaN,NaN,""
295446,24.6519,19.9999,NaN,NaN,NaN,NaN,""
295483,24.6309,20,NaN,NaN,NaN,NaN,""
295507,24.6398,20,NaN,NaN,NaN,NaN,""
295539,24.6518,19.9995,NaN,NaN,NaN,NaN,""
295560,24.6576,19.9997,NaN,NaN,NaN,NaN,""
295580,24.6464,19.9999,NaN,NaN,NaN,NaN,""
295612,24.629,20.0001,NaN,NaN,NaN,NaN,""
295615,24.6273,20.0001,NaN,NaN,NaN,NaN,""
295632,24.6598,19.9997,NaN,NaN,NaN,NaN,""
295647,24.649,19.9997,NaN,NaN,NaN,NaN,""
295660,24.6387,20,NaN,NaN,NaN,NaN,""
295679,24.625,20.0002,NaN,NaN,NaN,NaN,""
295691,24.6257,20.0002,NaN,NaN,NaN,NaN,""
295737,24.6284,20,NaN,NaN,NaN,NaN,""
295761,24.6673,19.9999,NaN,NaN,NaN,NaN,""
295776,24.6291,19.9998,NaN,NaN,NaN,NaN,""
295791,24.5908,19.9997,NaN,NaN,NaN,NaN,""
295803,24.6462,19.9996,NaN,NaN,NaN,NaN,""
295832,24.649,19.9997,NaN,NaN,NaN,NaN,""
295844,24.6502,20,NaN,NaN,NaN,NaN,""
295876,24.6497,20,NaN,NaN,NaN,NaN,""
295930,24.6328,19.9999,NaN,NaN,NaN,NaN,""
295981,24.6582,19.9999,NaN,NaN,NaN,NaN,""
295999,24.8283,19.9999,NaN,NaN,NaN,NaN,""
296000,24.8228,19.9999,NaN,NaN,NaN,NaN,""
296026,24.7075,20,NaN,NaN,NaN,NaN,""
296067,24.6608,20.0001,NaN,NaN,NaN,NaN,""
296089,24.6053,19.9999,NaN,NaN,NaN,NaN,""
296104,24.6069,19.9998,NaN,NaN,NaN,NaN,""
296110,24.6495,19.9997,NaN,NaN,NaN,NaN,""
296117,24.6526,19.9997,NaN,NaN,NaN,NaN,""
296132,24.6213,19.9998,NaN,NaN,NaN,NaN,""
296183,24.6788,19.9998,NaN,NaN,NaN,NaN,""
296204,24.6529,19.9998,NaN,NaN,NaN,NaN,""
296210,24.6895,19.9999,NaN,NaN,NaN,NaN,""
296216,24.7262,19.9999,NaN,NaN,NaN,NaN,""
296226,24.6584,20,NaN,NaN,NaN,NaN,""
296257,24.6769,20.0003,NaN,NaN,NaN,NaN,""
296286,24.6891,19.9998,NaN,NaN,NaN,NaN,""
296308,24.6567,19.9995,NaN,NaN,NaN,NaN,""