File: TAInstCalorimetry/DATA/calorimetry_data_4.csv
"Time","Temperature [AmbientT(Therm3T)]","Temperature [Temperature]","Heat flow [Signal]","Heat [Signal]","Normalized heat flow [Signal]","Normalized heat [Signal]","Time markers"
-2213.15,24.0542,19.9999,-1.17463e-06,NaN,-2.74189e-07,NaN,""
-2188.97,24.0502,19.9997,-1.22497e-06,NaN,-2.85941e-07,NaN,""
-2174.02,24.0455,19.9997,-1.25612e-06,NaN,-2.93212e-07,NaN,""
-2152.22,24.0367,19.9997,-1.35148e-06,NaN,-3.15472e-07,NaN,""
-2135.21,24.0299,19.9997,-1.43342e-06,NaN,-3.34598e-07,NaN,""
-2131.08,24.0282,19.9997,-1.42084e-06,NaN,-3.31663e-07,NaN,""
-2116.15,24.0222,19.9993,-1.37537e-06,NaN,-3.21047e-07,NaN,""
-2100.62,24.0168,19.9996,-1.32805e-06,NaN,-3.10002e-07,NaN,""
-2085.08,24.0285,19.9999,-1.30935e-06,NaN,-3.05636e-07,NaN,""
-2064.1,24.0443,19.9999,-1.29011e-06,NaN,-3.01145e-07,NaN,""
-2042.75,24.0305,19.9998,-1.27054e-06,NaN,-2.96577e-07,NaN,""
-2035.24,24.0256,19.9998,-1.10171e-06,NaN,-2.5717e-07,NaN,""
-2029.89,23.9847,19.9998,-9.81379e-07,NaN,-2.2908e-07,NaN,""
-2024.88,23.9496,19.9998,-9.80087e-07,NaN,-2.28778e-07,NaN,""
-1993.52,24.0096,19.9997,-9.72005e-07,NaN,-2.26892e-07,NaN,""
-1970.67,24.0218,19.9997,-9.04333e-07,NaN,-2.11095e-07,NaN,""
-1966.05,24.0243,19.9997,-8.81122e-07,NaN,-2.05677e-07,NaN,""
-1943.64,24.0419,19.9996,-7.68579e-07,NaN,-1.79407e-07,NaN,""
-1924.65,24.0776,19.9995,-6.7322e-07,NaN,-1.57147e-07,NaN,""
-1907,24.0525,19.9997,-4.76039e-07,NaN,-1.1112e-07,NaN,""
-1892.67,24.0322,19.9999,-2.82708e-07,NaN,-6.59917e-08,NaN,""
-1875.02,24.0184,20,-4.45644e-08,NaN,-1.04025e-08,NaN,""
-1859.49,24.0086,20.0001,8.62835e-08,NaN,2.01409e-08,NaN,""
-1858.29,24.0078,20.0001,9.61572e-08,NaN,2.24456e-08,NaN,""
-1852.41,24.062,20.0001,1.4445e-07,NaN,3.37185e-08,NaN,""
-1848.34,24.0795,20,1.77908e-07,NaN,4.15285e-08,NaN,""
-1837.96,24.06,19.9997,2.63255e-07,NaN,6.14508e-08,NaN,""
-1811.87,24.011,19.9997,4.77715e-07,NaN,1.11511e-07,NaN,""
-1787.06,24.018,19.9998,6.7532e-07,NaN,1.57638e-07,NaN,""
-1757.02,24.0265,20.0001,6.58088e-07,NaN,1.53615e-07,NaN,""
-1742.65,24.0305,20.0002,8.60881e-07,NaN,2.00953e-07,NaN,""
-1730.15,24.0319,20,9.95207e-07,NaN,2.32308e-07,NaN,""
-1706.01,24.0319,19.9997,7.94139e-07,NaN,1.85373e-07,NaN,""
-1681.86,24.0319,19.9996,5.87841e-07,NaN,1.37218e-07,NaN,""
-1661.71,24.032,19.9996,3.64056e-07,NaN,8.49804e-08,NaN,""
-1649.52,24.0675,19.9995,2.28609e-07,NaN,5.33633e-08,NaN,""
-1640.8,24.0813,19.9995,2.02848e-07,NaN,4.73502e-08,NaN,""
-1622.97,24.0734,19.9996,1.5018e-07,NaN,3.50561e-08,NaN,""
-1580.93,24.0549,19.9999,-6.25272e-07,NaN,-1.45955e-07,NaN,""
-1564.79,24.0478,19.9997,-7.83334e-07,NaN,-1.82851e-07,NaN,""
-1552.77,24.0425,19.9995,-8.50401e-07,NaN,-1.98506e-07,NaN,""
-1543.3,24.0384,19.9995,-1.05935e-06,NaN,-2.4728e-07,NaN,""
-1533.84,24.0342,19.9997,-1.26829e-06,NaN,-2.96054e-07,NaN,""
-1525.26,24.0304,19.9998,-1.32442e-06,NaN,-3.09156e-07,NaN,""
-1516.86,24.0341,20,-1.38153e-06,NaN,-3.22486e-07,NaN,""
-1503.96,24.0397,19.9998,-1.62518e-06,NaN,-3.7936e-07,NaN,""
-1491.07,24.0454,19.9996,-1.86311e-06,NaN,-4.34899e-07,NaN,""
-1485.09,24.048,19.9996,-1.77334e-06,NaN,-4.13944e-07,NaN,""
-1479.11,24.0506,19.9997,-1.6876e-06,NaN,-3.93932e-07,NaN,""
-1464.88,24.0569,19.9998,-1.81511e-06,NaN,-4.23695e-07,NaN,""
-1449.99,24.0564,19.9999,-1.76677e-06,NaN,-4.12411e-07,NaN,""
-1435.09,24.0451,19.9992,-1.71843e-06,NaN,-4.01127e-07,NaN,""
-1427.76,24.0396,19.9992,-1.77294e-06,NaN,-4.13853e-07,NaN,""
-1420.43,24.034,19.9993,-1.82746e-06,NaN,-4.26578e-07,NaN,""
-1408.37,24.0248,19.9995,-1.55052e-06,NaN,-3.61933e-07,NaN,""
-1400.9,24.0387,19.9996,-1.52888e-06,NaN,-3.56883e-07,NaN,""
-1390.14,24.0587,19.9997,-1.6326e-06,NaN,-3.81092e-07,NaN,""
-1373,24.0863,19.9999,-1.37418e-06,NaN,-3.20771e-07,NaN,""
-1355.21,24.0507,19.9999,-1.10584e-06,NaN,-2.58134e-07,NaN,""
-1343.35,24.0332,19.9999,-1.12862e-06,NaN,-2.63451e-07,NaN,""
-1331.49,24.0371,19.9999,-1.1514e-06,NaN,-2.68768e-07,NaN,""
-1317.16,24.0417,19.9999,-8.26719e-07,NaN,-1.92978e-07,NaN,""
-1297.81,24.0479,19.9999,-7.37542e-07,NaN,-1.72162e-07,NaN,""
-1294.98,24.0488,19.9999,-6.60687e-07,NaN,-1.54222e-07,NaN,""
-1281.54,23.998,19.9999,-2.95612e-07,NaN,-6.90037e-08,NaN,""
-1271.93,23.9894,19.9999,-2.25775e-07,NaN,-5.2702e-08,NaN,""
-1256.31,24.0429,19.9999,-1.12184e-07,NaN,-2.61867e-08,NaN,""
-1242.77,24.0428,19.9999,1.3021e-07,NaN,3.03944e-08,NaN,""
-1233.24,24.0426,19.9999,2.78615e-07,NaN,6.50362e-08,NaN,""
-1211.71,24.0424,20,3.18672e-07,NaN,7.43865e-08,NaN,""
-1187.5,24.042,20,7.45481e-07,NaN,1.74015e-07,NaN,""
-1160.79,24.0417,20,6.51009e-07,NaN,1.51963e-07,NaN,""
-1147.54,24.0415,20.0001,7.88557e-07,NaN,1.8407e-07,NaN,""
-1127.02,24.0413,20.0001,6.07934e-07,NaN,1.41908e-07,NaN,""
-1089.48,24.0408,20.0001,4.19297e-07,NaN,9.7875e-08,NaN,""
-1069.02,24.0405,20.0002,5.94726e-07,NaN,1.38825e-07,NaN,""
-1053.93,24.0413,20.0002,4.78578e-07,NaN,1.11713e-07,NaN,""
-1033.24,24.0433,19.9995,3.19231e-07,NaN,7.4517e-08,NaN,""
-1021.84,24.0445,19.9994,3.97058e-07,NaN,9.2684e-08,NaN,""
-1010.45,24.0456,19.9994,4.74886e-07,NaN,1.10851e-07,NaN,""
-997.893,24.0469,19.9996,3.55203e-07,NaN,8.29139e-08,NaN,""
-978.797,24.0488,20.0001,1.73126e-07,NaN,4.04123e-08,NaN,""
-971.684,24.0495,20.0002,2.2681e-07,NaN,5.29435e-08,NaN,""
-964.57,24.0502,20,2.80494e-07,NaN,6.54748e-08,NaN,""
-956.895,24.0493,19.9998,2.48882e-07,NaN,5.80957e-08,NaN,""
-941.471,24.0452,19.9998,1.85361e-07,NaN,4.32682e-08,NaN,""
-913.086,24.0376,19.9998,5.85648e-07,NaN,1.36706e-07,NaN,""
-886.259,24.0304,19.9998,6.00747e-07,NaN,1.4023e-07,NaN,""
-867.664,24.0254,19.9997,6.11213e-07,NaN,1.42674e-07,NaN,""
-859.432,24.0703,19.9997,6.15847e-07,NaN,1.43755e-07,NaN,""
-853.674,24.0849,19.9996,6.89928e-07,NaN,1.61048e-07,NaN,""
-843.22,24.0713,19.9997,8.24431e-07,NaN,1.92444e-07,NaN,""
-832.766,24.0577,19.9998,8.32637e-07,NaN,1.9436e-07,NaN,""
-820.516,24.0417,19.9999,7.21544e-07,NaN,1.68428e-07,NaN,""
-801.537,24.0366,20.0001,8.39482e-07,NaN,1.95957e-07,NaN,""
-782.559,24.0507,19.9998,9.57419e-07,NaN,2.23487e-07,NaN,""
-765.995,24.0631,19.9996,9.79819e-07,NaN,2.28716e-07,NaN,""
-738.7,24.0425,19.9996,1.01673e-06,NaN,2.37332e-07,NaN,""
-725.766,24.0335,19.9996,1.03422e-06,NaN,2.41414e-07,NaN,""
-704.993,24.0481,19.9996,1.06231e-06,NaN,2.47972e-07,NaN,""
-684.22,24.0137,19.9997,1.0904e-06,NaN,2.54529e-07,NaN,""
-680.586,23.9797,19.9997,1.09532e-06,NaN,2.55676e-07,NaN,""
-676.11,24.0021,19.9998,1.08293e-06,NaN,2.52785e-07,NaN,""
-668.156,24.0543,19.9998,1.06092e-06,NaN,2.47648e-07,NaN,""
-645.5,24.0412,20,9.98236e-07,NaN,2.33015e-07,NaN,""
-634.324,24.0365,19.9997,8.91276e-07,NaN,2.08048e-07,NaN,""
-623.149,24.0408,19.9994,7.66705e-07,NaN,1.78969e-07,NaN,""
-610.721,24.0456,19.9996,6.24333e-07,NaN,1.45736e-07,NaN,""
-586.604,24.055,19.9999,3.43653e-07,NaN,8.02178e-08,NaN,""
-570.168,24.0565,19.9999,4.74908e-07,NaN,1.10856e-07,NaN,""
-542.582,24.0366,19.9998,7.2774e-07,NaN,1.69874e-07,NaN,""
-522.985,24.0374,19.9998,8.65273e-07,NaN,2.01978e-07,NaN,""
-464.828,24.0657,20,1.27342e-06,NaN,2.9725e-07,NaN,""
-450.243,24.0663,19.9999,1.16849e-06,NaN,2.72756e-07,NaN,""
-435.658,24.0658,19.9997,1.06356e-06,NaN,2.48262e-07,NaN,""
-415.149,24.0649,19.9995,1.26885e-06,NaN,2.96184e-07,NaN,""
-414.149,24.0649,19.9995,1.35843e-05,NaN,3.17094e-06,NaN,""
-412.797,24.0649,19.9995,NaN,NaN,NaN,NaN,""
-392.711,24.0641,19.9998,NaN,NaN,NaN,NaN,""
-363.899,24.0629,19.9995,NaN,NaN,NaN,NaN,""
-335.547,24.0618,20,NaN,NaN,NaN,NaN,""
-321.293,24.0613,19.9999,NaN,NaN,NaN,NaN,""
-290.149,23.9809,19.9998,NaN,NaN,NaN,NaN,""
-280.215,24.017,19.9998,NaN,NaN,NaN,NaN,""
-270.281,24.0532,19.9998,NaN,NaN,NaN,NaN,""
-253.833,24.0602,19.9999,NaN,NaN,NaN,NaN,""
-235.629,24.068,19.9995,NaN,NaN,NaN,NaN,""
-224.05,24.0545,19.9995,NaN,NaN,NaN,NaN,""
-195.928,24.0216,20,NaN,NaN,NaN,NaN,""
-170.235,24.0252,19.9998,NaN,NaN,NaN,NaN,""
-160.703,24.0375,19.9997,NaN,NaN,NaN,NaN,""
-135.01,24.0504,19.9996,NaN,NaN,NaN,NaN,""
-107.308,24.0629,19.9996,NaN,NaN,NaN,NaN,""
-88.1798,24.0314,19.9996,NaN,NaN,NaN,NaN,""
-57.6798,24.118,19.9997,NaN,NaN,NaN,NaN,""
-24.1114,24.1145,19.9997,NaN,NaN,NaN,NaN,""
9.45701,24.1111,19.9998,NaN,NaN,NaN,NaN,""
46.0347,24.126,19.9998,NaN,NaN,NaN,NaN,""
90.6405,24.1442,19.9994,NaN,NaN,NaN,NaN,""
119.394,24.1559,20,NaN,NaN,NaN,NaN,""
121.023,24.1566,20.0001,NaN,NaN,NaN,NaN,""
159.412,24.2137,20.0007,NaN,NaN,NaN,NaN,""
179.953,24.2011,20.0001,NaN,NaN,NaN,NaN,""
193.745,24.1927,19.9999,NaN,NaN,NaN,NaN,""
220.073,24.1805,19.9999,NaN,NaN,NaN,NaN,""
241.454,24.1777,20,NaN,NaN,NaN,NaN,""
245.5,24.1771,20,NaN,NaN,NaN,NaN,""
256.976,24.0813,20.0001,NaN,NaN,NaN,NaN,""
274.848,24.123,20.0001,NaN,NaN,NaN,NaN,""
303.409,24.1121,20.0001,NaN,NaN,NaN,NaN,""
316.476,24.1071,19.9998,NaN,NaN,NaN,NaN,""
358.181,24.0912,20.0002,NaN,NaN,NaN,NaN,""
381.247,24.0864,20.0004,NaN,NaN,NaN,NaN,""
404.312,24.0863,20.0005,NaN,NaN,NaN,NaN,""
425.922,24.0861,20,NaN,NaN,NaN,NaN,""
438.886,24.1021,19.9995,NaN,NaN,NaN,NaN,""
451.849,24.1453,19.999,NaN,NaN,NaN,NaN,""
463.941,24.1291,19.9993,NaN,NaN,NaN,NaN,""
469.851,24.0896,19.9994,NaN,NaN,NaN,NaN,""
488.028,24.091,19.9998,NaN,NaN,NaN,NaN,""
518.421,24.0932,19.9998,NaN,NaN,NaN,NaN,""
542.413,24.1154,19.9998,NaN,NaN,NaN,NaN,""
566.406,24.1377,19.9997,NaN,NaN,NaN,NaN,""
581.027,24.0837,19.9997,NaN,NaN,NaN,NaN,""
626.173,24.1362,19.9996,NaN,NaN,NaN,NaN,""
662.723,24.1173,19.9995,NaN,NaN,NaN,NaN,""
699.273,24.0985,19.9996,NaN,NaN,NaN,NaN,""
774.416,24.139,19.9999,NaN,NaN,NaN,NaN,""
816.926,24.162,20.0001,NaN,NaN,NaN,NaN,""
849.441,24.1288,20.0001,NaN,NaN,NaN,NaN,""
864.73,24.1131,19.9998,NaN,NaN,NaN,NaN,""
881.956,24.0955,20.0001,NaN,NaN,NaN,NaN,""
896.266,24.0893,20.0003,NaN,NaN,NaN,NaN,""
949.76,24.066,19.9998,NaN,NaN,NaN,NaN,""
962.357,24.0605,19.9997,NaN,NaN,NaN,NaN,""
984.101,24.1597,19.9996,NaN,NaN,NaN,NaN,""
1003.24,24.1314,19.9996,NaN,NaN,NaN,NaN,""
1022.38,24.103,20,NaN,NaN,NaN,NaN,""
1038.55,24.1005,20.0001,NaN,NaN,NaN,NaN,""
1062.68,24.0966,19.9998,NaN,NaN,NaN,NaN,""
1092.72,24.1166,19.9999,NaN,NaN,NaN,NaN,""
1115.7,24.1685,19.9999,NaN,NaN,NaN,NaN,""
1133.58,24.1341,19.9999,NaN,NaN,NaN,NaN,""
1149.1,24.109,19.9999,NaN,NaN,NaN,NaN,""
1209.45,24.115,20,NaN,NaN,NaN,NaN,""
1230.31,24.0866,19.9999,NaN,NaN,NaN,NaN,""
1251.17,24.0582,19.9996,NaN,NaN,NaN,NaN,""
1269.53,24.0762,19.9995,NaN,NaN,NaN,NaN,""
1285.26,24.0915,19.9999,NaN,NaN,NaN,NaN,""
1303.62,24.0908,19.9999,NaN,NaN,NaN,NaN,""
1346.05,24.0818,19.9997,NaN,NaN,NaN,NaN,""
1383.14,24.0983,19.9997,NaN,NaN,NaN,NaN,""
1437.04,24.1223,19.9998,NaN,NaN,NaN,NaN,""
1501.95,24.1291,19.9999,NaN,NaN,NaN,NaN,""
1519.24,24.0699,20,NaN,NaN,NaN,NaN,""
1529.43,24.0617,20,NaN,NaN,NaN,NaN,""
1585.18,24.0807,20.0001,NaN,NaN,NaN,NaN,""
1585.86,24.0813,20.0001,NaN,NaN,NaN,NaN,""
1611.35,24.1026,19.9995,NaN,NaN,NaN,NaN,""
1652.59,24.1372,19.9996,NaN,NaN,NaN,NaN,""
1661.85,24.0853,19.9996,NaN,NaN,NaN,NaN,""
1707.95,24.0967,19.9997,NaN,NaN,NaN,NaN,""
1734.77,24.098,19.9998,NaN,NaN,NaN,NaN,""
1761.59,24.0993,19.9998,NaN,NaN,NaN,NaN,""
1780.85,24.0239,19.9998,NaN,NaN,NaN,NaN,""
1810.1,24.0817,19.9998,NaN,NaN,NaN,NaN,""
1828.6,24.1429,19.9998,NaN,NaN,NaN,NaN,""
1839.87,24.148,20,NaN,NaN,NaN,NaN,""
1871.8,24.1117,20.0005,NaN,NaN,NaN,NaN,""
1890.32,24.081,20.0001,NaN,NaN,NaN,NaN,""
1905.93,24.0532,19.9998,NaN,NaN,NaN,NaN,""
1919.74,24.0766,19.9997,NaN,NaN,NaN,NaN,""
1933.55,24.1001,19.9996,NaN,NaN,NaN,NaN,""
1949.95,24.0928,19.9996,NaN,NaN,NaN,NaN,""
1970.84,24.0834,19.9998,NaN,NaN,NaN,NaN,""
1987.05,24.0879,19.9997,NaN,NaN,NaN,NaN,""
2000.76,24.0917,19.9996,NaN,NaN,NaN,NaN,""
2020.45,24.0972,19.9997,NaN,NaN,NaN,NaN,""
2034.85,24.1164,19.9997,NaN,NaN,NaN,NaN,""
2047.69,24.1271,19.9995,NaN,NaN,NaN,NaN,""
2065.09,24.0791,19.9993,NaN,NaN,NaN,NaN,""
2079.04,24.0886,19.9995,NaN,NaN,NaN,NaN,""
2088.85,24.1554,19.9997,NaN,NaN,NaN,NaN,""
2107,24.1638,19.9999,NaN,NaN,NaN,NaN,""
2125.37,24.1722,20,NaN,NaN,NaN,NaN,""
2139.98,24.1462,20.0001,NaN,NaN,NaN,NaN,""
2154.58,24.1203,19.9999,NaN,NaN,NaN,NaN,""
2175.03,24.1047,19.9998,NaN,NaN,NaN,NaN,""
2188.91,24.0941,19.9995,NaN,NaN,NaN,NaN,""
2198.07,24.1356,19.9993,NaN,NaN,NaN,NaN,""
2203.52,24.137,19.9994,NaN,NaN,NaN,NaN,""
2225.34,24.0986,19.9997,NaN,NaN,NaN,NaN,""
2233.72,24.1227,19.9998,NaN,NaN,NaN,NaN,""
2242.1,24.1468,19.9998,NaN,NaN,NaN,NaN,""
2277.56,24.0834,19.9998,NaN,NaN,NaN,NaN,""
2309.16,24.0934,19.9998,NaN,NaN,NaN,NaN,""
2327.81,24.1262,19.9998,NaN,NaN,NaN,NaN,""
2344.73,24.1667,19.9998,NaN,NaN,NaN,NaN,""
2380.88,24.1297,19.9999,NaN,NaN,NaN,NaN,""
2404.32,24.1805,19.9999,NaN,NaN,NaN,NaN,""
2412.85,24.0843,19.9999,NaN,NaN,NaN,NaN,""
2423.01,24.1333,19.9999,NaN,NaN,NaN,NaN,""
2428.84,24.1336,19.9998,NaN,NaN,NaN,NaN,""
2446.69,24.105,19.9996,NaN,NaN,NaN,NaN,""
2465.85,24.1439,19.9994,NaN,NaN,NaN,NaN,""
2473.73,24.1416,19.9996,NaN,NaN,NaN,NaN,""
2481.61,24.1374,19.9999,NaN,NaN,NaN,NaN,""
2508.22,24.1232,19.9999,NaN,NaN,NaN,NaN,""
2524.16,24.1459,19.9999,NaN,NaN,NaN,NaN,""
2538.47,24.157,20,NaN,NaN,NaN,NaN,""
2551.37,24.1004,20.0001,NaN,NaN,NaN,NaN,""
2564.18,24.1298,20.0001,NaN,NaN,NaN,NaN,""
2577,24.1592,19.9998,NaN,NaN,NaN,NaN,""
2591.46,24.1351,19.9997,NaN,NaN,NaN,NaN,""
2608.85,24.1061,19.9997,NaN,NaN,NaN,NaN,""
2629.19,24.1343,19.9996,NaN,NaN,NaN,NaN,""
2665.62,24.1106,19.9996,NaN,NaN,NaN,NaN,""
2694.71,24.1267,19.9998,NaN,NaN,NaN,NaN,""
2698.95,24.1255,19.9998,NaN,NaN,NaN,NaN,""
2708.98,24.1064,19.9998,NaN,NaN,NaN,NaN,""
2745.43,24.1227,20,NaN,NaN,NaN,NaN,""
2778.16,24.1373,19.9997,NaN,NaN,NaN,NaN,""
2792.09,24.1219,19.9995,NaN,NaN,NaN,NaN,""
2801.47,24.1337,19.9996,NaN,NaN,NaN,NaN,""
2805.81,24.1491,19.9996,NaN,NaN,NaN,NaN,""
2868.63,24.1193,19.9996,NaN,NaN,NaN,NaN,""
2903.35,24.0994,19.9999,NaN,NaN,NaN,NaN,""
2938.07,24.0607,20.0001,NaN,NaN,NaN,NaN,""
2941.93,24.0564,20,NaN,NaN,NaN,NaN,""
2954.18,24.1062,19.9998,NaN,NaN,NaN,NaN,""
2967.07,24.0913,19.9995,NaN,NaN,NaN,NaN,""
2979.72,24.0776,19.9996,NaN,NaN,NaN,NaN,""
3001.77,24.1394,19.9998,NaN,NaN,NaN,NaN,""
3018.48,24.1401,19.9999,NaN,NaN,NaN,NaN,""
3035.18,24.1407,19.9999,NaN,NaN,NaN,NaN,""
3072.23,24.1824,19.9997,NaN,NaN,NaN,NaN,""
3090.79,24.1419,19.9996,NaN,NaN,NaN,NaN,""
3095.52,24.1352,19.9996,NaN,NaN,NaN,NaN,""
3118.23,24.1028,19.9998,NaN,NaN,NaN,NaN,""
3133.02,24.1344,19.9998,NaN,NaN,NaN,NaN,""
3147.82,24.1661,19.9995,NaN,NaN,NaN,NaN,""
3160.73,24.157,19.9996,NaN,NaN,NaN,NaN,""
3189.69,24.1367,20.0001,NaN,NaN,NaN,NaN,""
3212.11,24.1275,20,NaN,NaN,NaN,NaN,""
3234.52,24.1243,19.9998,NaN,NaN,NaN,NaN,""
3272.12,24.1189,19.9999,NaN,NaN,NaN,NaN,""
3308.85,24.0833,20,NaN,NaN,NaN,NaN,""
3327.61,24.065,19.9993,NaN,NaN,NaN,NaN,""
3338.28,24.0975,19.9994,NaN,NaN,NaN,NaN,""
3362.4,24.1708,19.9998,NaN,NaN,NaN,NaN,""
3380.49,24.1613,19.9999,NaN,NaN,NaN,NaN,""
3431.97,24.1343,19.9998,NaN,NaN,NaN,NaN,""
3456.99,24.1408,19.9998,NaN,NaN,NaN,NaN,""
3482,24.1472,19.9998,NaN,NaN,NaN,NaN,""
3497.01,24.2562,19.9998,NaN,NaN,NaN,NaN,""
3503.35,24.2537,19.9998,NaN,NaN,NaN,NaN,""
3518.48,24.2478,20.0003,NaN,NaN,NaN,NaN,""
3529.64,24.218,20.0002,NaN,NaN,NaN,NaN,""
3543.87,24.1775,20.0002,NaN,NaN,NaN,NaN,""
3576.99,24.2157,20.0001,NaN,NaN,NaN,NaN,""
3590.72,24.2618,20,NaN,NaN,NaN,NaN,""
3604.46,24.3079,19.9999,NaN,NaN,NaN,NaN,""
3622.85,24.2455,19.9997,NaN,NaN,NaN,NaN,""
3634.68,24.2054,20,NaN,NaN,NaN,NaN,""
3645.74,24.1993,20.0002,NaN,NaN,NaN,NaN,""
3675.84,24.1828,19.9999,NaN,NaN,NaN,NaN,""
3692.48,24.1754,20,NaN,NaN,NaN,NaN,""
3709.12,24.1916,20.0001,NaN,NaN,NaN,NaN,""
3730.45,24.2123,19.9997,NaN,NaN,NaN,NaN,""
3743.68,24.2036,19.9996,NaN,NaN,NaN,NaN,""
3761.19,24.1921,19.9998,NaN,NaN,NaN,NaN,""
3772.95,24.1251,19.9999,NaN,NaN,NaN,NaN,""
3794.41,24.1417,20.0001,NaN,NaN,NaN,NaN,""
3813.61,24.1545,20.0001,NaN,NaN,NaN,NaN,""
3833.29,24.1517,20.0001,NaN,NaN,NaN,NaN,""
3857.7,24.1482,20.0004,NaN,NaN,NaN,NaN,""
3874.46,24.1458,20.0001,NaN,NaN,NaN,NaN,""
3886.98,24.1214,19.9999,NaN,NaN,NaN,NaN,""
3898.48,24.0994,20,NaN,NaN,NaN,NaN,""
3909.98,24.137,20.0002,NaN,NaN,NaN,NaN,""
3924.62,24.185,20,NaN,NaN,NaN,NaN,""
3936.05,24.1807,19.9999,NaN,NaN,NaN,NaN,""
3961.57,24.171,20.0001,NaN,NaN,NaN,NaN,""
3990.36,24.1601,19.9995,NaN,NaN,NaN,NaN,""
4019.97,24.1488,19.9998,NaN,NaN,NaN,NaN,""
4057.04,24.1364,19.9998,NaN,NaN,NaN,NaN,""
4094.11,24.1364,19.9997,NaN,NaN,NaN,NaN,""
4137.82,24.1363,19.9996,NaN,NaN,NaN,NaN,""
4158.85,24.1909,19.9996,NaN,NaN,NaN,NaN,""
4181.61,24.1666,19.9996,NaN,NaN,NaN,NaN,""
4204.36,24.1424,19.9998,NaN,NaN,NaN,NaN,""
4234.84,24.147,19.9999,NaN,NaN,NaN,NaN,""
4244.93,24.1486,19.9997,NaN,NaN,NaN,NaN,""
4254.11,24.1551,19.9996,NaN,NaN,NaN,NaN,""
4275.04,24.1701,19.9996,NaN,NaN,NaN,NaN,""
4307.16,24.1219,19.9997,NaN,NaN,NaN,NaN,""
4341.76,24.1331,19.9997,NaN,NaN,NaN,NaN,""
4376.36,24.1444,19.9995,NaN,NaN,NaN,NaN,""
4411.49,24.1497,19.9995,NaN,NaN,NaN,NaN,""
4431.72,24.1527,19.9998,NaN,NaN,NaN,NaN,""
4467.82,24.1581,19.9997,NaN,NaN,NaN,NaN,""
4492.37,24.1617,20.0003,NaN,NaN,NaN,NaN,""
4528.35,24.1671,19.9999,NaN,NaN,NaN,NaN,""
4580.95,24.1749,20,NaN,NaN,NaN,NaN,""
4583.35,24.1679,20,NaN,NaN,NaN,NaN,""
4598.49,24.1237,19.9996,NaN,NaN,NaN,NaN,""
4607.17,24.125,19.9995,NaN,NaN,NaN,NaN,""
4622.39,24.1272,19.9996,NaN,NaN,NaN,NaN,""
4640.85,24.13,20.0002,NaN,NaN,NaN,NaN,""
4702.64,24.1391,19.9999,NaN,NaN,NaN,NaN,""
4758.26,24.1291,19.9999,NaN,NaN,NaN,NaN,""
4813.88,24.1078,19.9998,NaN,NaN,NaN,NaN,""
4844.77,24.096,19.9994,NaN,NaN,NaN,NaN,""
4858.3,24.1385,19.9994,NaN,NaN,NaN,NaN,""
4871.84,24.1811,19.9995,NaN,NaN,NaN,NaN,""
4910.09,24.1428,19.9996,NaN,NaN,NaN,NaN,""
4929.98,24.1762,19.9997,NaN,NaN,NaN,NaN,""
4945.36,24.1526,19.9997,NaN,NaN,NaN,NaN,""
4960.14,24.1312,19.9997,NaN,NaN,NaN,NaN,""
4999.73,24.152,19.9996,NaN,NaN,NaN,NaN,""
5023.26,24.1286,19.9998,NaN,NaN,NaN,NaN,""
5035.12,24.1168,20,NaN,NaN,NaN,NaN,""
5052.23,24.1215,19.9998,NaN,NaN,NaN,NaN,""
5067.21,24.1665,19.9996,NaN,NaN,NaN,NaN,""
5079.07,24.1566,19.9996,NaN,NaN,NaN,NaN,""
5096.78,24.1159,19.9997,NaN,NaN,NaN,NaN,""
5113.12,24.1225,19.9995,NaN,NaN,NaN,NaN,""
5137.35,24.1325,19.9992,NaN,NaN,NaN,NaN,""
5148.88,24.1372,19.9995,NaN,NaN,NaN,NaN,""
5160.05,24.1117,19.9997,NaN,NaN,NaN,NaN,""
5175.1,24.0775,19.9997,NaN,NaN,NaN,NaN,""
5189.56,24.1225,19.9997,NaN,NaN,NaN,NaN,""
5248.29,24.1196,19.9997,NaN,NaN,NaN,NaN,""
5308.04,24.1166,19.9997,NaN,NaN,NaN,NaN,""
5379.53,24.121,19.9997,NaN,NaN,NaN,NaN,""
5425.73,24.1238,20.0002,NaN,NaN,NaN,NaN,""
5452.69,24.1255,19.9997,NaN,NaN,NaN,NaN,""
5459.85,24.1259,19.9997,NaN,NaN,NaN,NaN,""
5476.15,24.1946,19.9998,NaN,NaN,NaN,NaN,""
5491.66,24.1496,19.9998,NaN,NaN,NaN,NaN,""
5515.53,24.1487,19.9999,NaN,NaN,NaN,NaN,""
5539.41,24.1479,20,NaN,NaN,NaN,NaN,""
5587.54,24.1002,20.0003,NaN,NaN,NaN,NaN,""
5591.88,24.1458,20.0003,NaN,NaN,NaN,NaN,""
5595.1,24.1671,20.0002,NaN,NaN,NaN,NaN,""
5614.65,24.1568,19.9995,NaN,NaN,NaN,NaN,""
5632.4,24.1475,19.9995,NaN,NaN,NaN,NaN,""
5642.12,24.1482,19.9997,NaN,NaN,NaN,NaN,""
5658.35,24.1493,20.0001,NaN,NaN,NaN,NaN,""
5694.86,24.152,19.9999,NaN,NaN,NaN,NaN,""
5702.18,24.1809,20,NaN,NaN,NaN,NaN,""
5709.5,24.2098,20.0001,NaN,NaN,NaN,NaN,""
5721.73,24.1987,20.0003,NaN,NaN,NaN,NaN,""
5747.87,24.1751,20,NaN,NaN,NaN,NaN,""
5760.54,24.1641,19.9996,NaN,NaN,NaN,NaN,""
5773.2,24.1559,19.9992,NaN,NaN,NaN,NaN,""
5790.04,24.145,19.9995,NaN,NaN,NaN,NaN,""
5816.35,24.128,20.0003,NaN,NaN,NaN,NaN,""
5840.86,24.1121,20.0001,NaN,NaN,NaN,NaN,""
5857.04,24.1529,20,NaN,NaN,NaN,NaN,""
5870.97,24.1797,20.0002,NaN,NaN,NaN,NaN,""
5885.77,24.1621,20.0004,NaN,NaN,NaN,NaN,""
5923.11,24.1177,19.9998,NaN,NaN,NaN,NaN,""
5952.35,24.1259,19.9998,NaN,NaN,NaN,NaN,""
5984.8,24.1427,19.9998,NaN,NaN,NaN,NaN,""
6022.18,24.14,19.9998,NaN,NaN,NaN,NaN,""
6074.82,24.1363,20,NaN,NaN,NaN,NaN,""
6085.64,24.1356,19.9999,NaN,NaN,NaN,NaN,""
6104.58,24.1774,19.9997,NaN,NaN,NaN,NaN,""
6122.44,24.2114,19.9997,NaN,NaN,NaN,NaN,""
6144.35,24.1501,19.9997,NaN,NaN,NaN,NaN,""
6168.23,24.1567,19.9999,NaN,NaN,NaN,NaN,""
6187.77,24.1621,20.0002,NaN,NaN,NaN,NaN,""
6208.02,24.1677,20,NaN,NaN,NaN,NaN,""
6227,24.1539,19.9999,NaN,NaN,NaN,NaN,""
6257.45,24.1318,20,NaN,NaN,NaN,NaN,""
6283.8,24.1364,20,NaN,NaN,NaN,NaN,""
6338.41,24.1459,19.9995,NaN,NaN,NaN,NaN,""
6353.79,24.1493,19.9997,NaN,NaN,NaN,NaN,""
6369.17,24.1536,19.9999,NaN,NaN,NaN,NaN,""
6392.7,24.1602,19.9997,NaN,NaN,NaN,NaN,""
6417.81,24.1672,20,NaN,NaN,NaN,NaN,""
6428.42,24.1701,19.9997,NaN,NaN,NaN,NaN,""
6440.85,24.1891,19.9994,NaN,NaN,NaN,NaN,""
6453.66,24.2087,19.9996,NaN,NaN,NaN,NaN,""
6469.79,24.185,19.9998,NaN,NaN,NaN,NaN,""
6495.66,24.1471,19.9997,NaN,NaN,NaN,NaN,""
6522.91,24.0935,19.9996,NaN,NaN,NaN,NaN,""
6535.15,24.1175,19.9996,NaN,NaN,NaN,NaN,""
6547.39,24.1416,19.9996,NaN,NaN,NaN,NaN,""
6608.76,24.165,19.9999,NaN,NaN,NaN,NaN,""
6609.97,24.1653,19.9999,NaN,NaN,NaN,NaN,""
6631.85,24.1714,19.9994,NaN,NaN,NaN,NaN,""
6651.49,24.1769,19.9996,NaN,NaN,NaN,NaN,""
6673.79,24.1738,19.9994,NaN,NaN,NaN,NaN,""
6696.1,24.161,19.9992,NaN,NaN,NaN,NaN,""
6711.24,24.1523,19.9998,NaN,NaN,NaN,NaN,""
6752.85,24.1689,19.9998,NaN,NaN,NaN,NaN,""
6758.92,24.1934,19.9998,NaN,NaN,NaN,NaN,""
6768.85,24.1382,19.9998,NaN,NaN,NaN,NaN,""
6820.3,24.16,19.9998,NaN,NaN,NaN,NaN,""
6838.83,24.1387,19.9998,NaN,NaN,NaN,NaN,""
6857.35,24.1174,19.9999,NaN,NaN,NaN,NaN,""
6880.4,24.1732,19.9999,NaN,NaN,NaN,NaN,""
6915.08,24.1545,20,NaN,NaN,NaN,NaN,""
6967.41,24.1899,20,NaN,NaN,NaN,NaN,""
6980.03,24.1189,20.0001,NaN,NaN,NaN,NaN,""
7022.2,24.1718,20.0001,NaN,NaN,NaN,NaN,""
7039.59,24.1784,19.9999,NaN,NaN,NaN,NaN,""
7056.99,24.1722,19.9997,NaN,NaN,NaN,NaN,""
7107.36,24.1541,19.9996,NaN,NaN,NaN,NaN,""
7133.04,24.1557,19.9997,NaN,NaN,NaN,NaN,""
7158.73,24.159,19.9998,NaN,NaN,NaN,NaN,""
7173.9,24.161,19.9993,NaN,NaN,NaN,NaN,""
7187.82,24.1628,20,NaN,NaN,NaN,NaN,""
7195.91,24.1793,20.0001,NaN,NaN,NaN,NaN,""
7209.26,24.2066,20.0001,NaN,NaN,NaN,NaN,""
7220.22,24.1758,19.9998,NaN,NaN,NaN,NaN,""
7232.85,24.1375,19.9994,NaN,NaN,NaN,NaN,""
7242.45,24.1384,19.9996,NaN,NaN,NaN,NaN,""
7252.04,24.1469,19.9999,NaN,NaN,NaN,NaN,""
7278.93,24.1708,19.9999,NaN,NaN,NaN,NaN,""
7294.83,24.1638,19.9997,NaN,NaN,NaN,NaN,""
7309.09,24.1576,19.9995,NaN,NaN,NaN,NaN,""
7342.33,24.1429,19.9996,NaN,NaN,NaN,NaN,""
7401.27,24.1382,19.9998,NaN,NaN,NaN,NaN,""
7418.1,24.1679,19.9998,NaN,NaN,NaN,NaN,""
7434.93,24.1976,19.9998,NaN,NaN,NaN,NaN,""
7502.26,24.1673,19.9997,NaN,NaN,NaN,NaN,""
7541.3,24.1232,19.9999,NaN,NaN,NaN,NaN,""
7560.91,24.1226,20,NaN,NaN,NaN,NaN,""
7586.03,24.1648,20.0001,NaN,NaN,NaN,NaN,""
7604.6,24.1713,20,NaN,NaN,NaN,NaN,""
7660.18,24.1746,19.9997,NaN,NaN,NaN,NaN,""
7692.27,24.1587,19.9997,NaN,NaN,NaN,NaN,""
7724.35,24.1428,19.9998,NaN,NaN,NaN,NaN,""
7749.53,24.2094,19.9999,NaN,NaN,NaN,NaN,""
7775.54,24.2116,20,NaN,NaN,NaN,NaN,""
7801.55,24.2139,19.9999,NaN,NaN,NaN,NaN,""
7830.77,24.1486,19.9999,NaN,NaN,NaN,NaN,""
7890.72,24.1684,19.9997,NaN,NaN,NaN,NaN,""
7901.59,24.1992,19.9997,NaN,NaN,NaN,NaN,""
7913.85,24.234,19.9999,NaN,NaN,NaN,NaN,""
7929.29,24.1554,20,NaN,NaN,NaN,NaN,""
7949.88,24.1608,20.0002,NaN,NaN,NaN,NaN,""
7995.31,24.1728,20.0001,NaN,NaN,NaN,NaN,""
8067.58,24.1469,19.9999,NaN,NaN,NaN,NaN,""
8122.69,24.1353,19.9998,NaN,NaN,NaN,NaN,""
8153.96,24.139,19.9998,NaN,NaN,NaN,NaN,""
8173.6,24.205,19.9997,NaN,NaN,NaN,NaN,""
8190.34,24.15,19.9997,NaN,NaN,NaN,NaN,""
8197.98,24.1713,19.9997,NaN,NaN,NaN,NaN,""
8206.77,24.196,19.9996,NaN,NaN,NaN,NaN,""
8216.84,24.1836,19.9994,NaN,NaN,NaN,NaN,""
8239.42,24.1556,19.9999,NaN,NaN,NaN,NaN,""
8256.96,24.1553,19.9999,NaN,NaN,NaN,NaN,""
8274.49,24.1668,19.9998,NaN,NaN,NaN,NaN,""
8318.78,24.1958,20.0001,NaN,NaN,NaN,NaN,""
8336.25,24.1984,19.9998,NaN,NaN,NaN,NaN,""
8353.72,24.1893,19.9994,NaN,NaN,NaN,NaN,""
8374.93,24.1742,19.9997,NaN,NaN,NaN,NaN,""
8397.25,24.1392,20,NaN,NaN,NaN,NaN,""
8411.72,24.149,20,NaN,NaN,NaN,NaN,""
8434.83,24.1768,20,NaN,NaN,NaN,NaN,""
8461.44,24.1422,20,NaN,NaN,NaN,NaN,""
8478.72,24.1674,19.9999,NaN,NaN,NaN,NaN,""
8496.01,24.1927,19.9998,NaN,NaN,NaN,NaN,""
8509.93,24.2022,19.9998,NaN,NaN,NaN,NaN,""
8523.85,24.2117,20,NaN,NaN,NaN,NaN,""
8533.74,24.1471,20.0001,NaN,NaN,NaN,NaN,""
8547.7,24.1516,20.0002,NaN,NaN,NaN,NaN,""
8561.67,24.1561,19.9998,NaN,NaN,NaN,NaN,""
8573.59,24.1747,19.9996,NaN,NaN,NaN,NaN,""
8592.41,24.2039,19.9997,NaN,NaN,NaN,NaN,""
8626.69,24.1536,19.9998,NaN,NaN,NaN,NaN,""
8647.94,24.1434,19.9997,NaN,NaN,NaN,NaN,""
8669.19,24.1542,19.9996,NaN,NaN,NaN,NaN,""
8698.84,24.1693,20.0002,NaN,NaN,NaN,NaN,""
8719.35,24.1798,20.0001,NaN,NaN,NaN,NaN,""
8739.17,24.1899,19.9994,NaN,NaN,NaN,NaN,""
8772.59,24.2069,19.9998,NaN,NaN,NaN,NaN,""
8794.3,24.204,19.9999,NaN,NaN,NaN,NaN,""
8836.08,24.1985,19.9999,NaN,NaN,NaN,NaN,""
8844.4,24.1973,20.0001,NaN,NaN,NaN,NaN,""
8856.91,24.3152,20.0004,NaN,NaN,NaN,NaN,""
8860.63,24.2781,20.0005,NaN,NaN,NaN,NaN,""
8864.35,24.241,20.0005,NaN,NaN,NaN,NaN,""
8881.68,24.317,20.0004,NaN,NaN,NaN,NaN,""
8907.47,24.2572,20.0004,NaN,NaN,NaN,NaN,""
8923.15,24.2484,20.0003,NaN,NaN,NaN,NaN,""
8936.31,24.2566,20.0004,NaN,NaN,NaN,NaN,""
8945.02,24.3062,20.0005,NaN,NaN,NaN,NaN,""
8953.85,24.2078,20.0005,NaN,NaN,NaN,NaN,""
8963.95,24.2513,20.0006,NaN,NaN,NaN,NaN,""
8973.59,24.2905,20.0004,NaN,NaN,NaN,NaN,""
8988.1,24.2839,20,NaN,NaN,NaN,NaN,""
9030.19,24.2647,20.0009,NaN,NaN,NaN,NaN,""
9060.43,24.2627,20.0004,NaN,NaN,NaN,NaN,""
9090.68,24.2694,20,NaN,NaN,NaN,NaN,""
9132.12,24.2785,20.0003,NaN,NaN,NaN,NaN,""
9153.32,24.2631,20.0001,NaN,NaN,NaN,NaN,""
9174.51,24.2458,20,NaN,NaN,NaN,NaN,""
9204.59,24.2394,20.0001,NaN,NaN,NaN,NaN,""
9234.78,24.2669,20.0002,NaN,NaN,NaN,NaN,""
9262.23,24.2274,20,NaN,NaN,NaN,NaN,""
9271.83,24.2038,19.9999,NaN,NaN,NaN,NaN,""
9303.11,24.2043,19.9999,NaN,NaN,NaN,NaN,""
9334.85,24.2048,20.0005,NaN,NaN,NaN,NaN,""
9354.11,24.2077,20.0002,NaN,NaN,NaN,NaN,""
9373.36,24.2165,20,NaN,NaN,NaN,NaN,""
9412.61,24.2346,20.0001,NaN,NaN,NaN,NaN,""
9434.46,24.2437,19.9998,NaN,NaN,NaN,NaN,""
9456.31,24.2242,19.9995,NaN,NaN,NaN,NaN,""
9486.44,24.1974,19.9997,NaN,NaN,NaN,NaN,""
9505.74,24.2103,19.9999,NaN,NaN,NaN,NaN,""
9549.82,24.2398,20,NaN,NaN,NaN,NaN,""
9555.89,24.2192,20,NaN,NaN,NaN,NaN,""
9561.96,24.1987,20,NaN,NaN,NaN,NaN,""
9595.85,24.2016,19.9995,NaN,NaN,NaN,NaN,""
9621.28,24.2038,19.9998,NaN,NaN,NaN,NaN,""
9636.99,24.2051,19.9994,NaN,NaN,NaN,NaN,""
9648.78,24.2017,19.9993,NaN,NaN,NaN,NaN,""
9672.83,24.1949,19.9998,NaN,NaN,NaN,NaN,""
9709.77,24.1844,19.9997,NaN,NaN,NaN,NaN,""
9722.43,24.1808,19.9999,NaN,NaN,NaN,NaN,""
9737.79,24.2434,20.0001,NaN,NaN,NaN,NaN,""
9755.24,24.2191,20,NaN,NaN,NaN,NaN,""
9775.62,24.1907,19.9997,NaN,NaN,NaN,NaN,""
9793.15,24.1945,20,NaN,NaN,NaN,NaN,""
9801.8,24.1964,20,NaN,NaN,NaN,NaN,""
9826.08,24.2017,20,NaN,NaN,NaN,NaN,""
9882.29,24.2169,19.9999,NaN,NaN,NaN,NaN,""
9917.49,24.2063,19.9998,NaN,NaN,NaN,NaN,""
9960.62,24.1802,19.9998,NaN,NaN,NaN,NaN,""
9983.85,24.1662,20.0001,NaN,NaN,NaN,NaN,""
9997.85,24.2529,20.0003,NaN,NaN,NaN,NaN,""
10007.2,24.2779,20.0002,NaN,NaN,NaN,NaN,""
10032.4,24.2569,19.9998,NaN,NaN,NaN,NaN,""
10093.7,24.2061,20.0001,NaN,NaN,NaN,NaN,""
10125.9,24.202,20.0001,NaN,NaN,NaN,NaN,""
10152.5,24.1986,20,NaN,NaN,NaN,NaN,""
10172.7,24.1961,20.0002,NaN,NaN,NaN,NaN,""
10189.8,24.1789,20,NaN,NaN,NaN,NaN,""
10206.9,24.1617,19.9991,NaN,NaN,NaN,NaN,""
10219.9,24.1906,19.9992,NaN,NaN,NaN,NaN,""
10232.9,24.2245,19.9993,NaN,NaN,NaN,NaN,""
10246.7,24.234,19.9996,NaN,NaN,NaN,NaN,""
10264,24.2368,19.9998,NaN,NaN,NaN,NaN,""
10276.1,24.3011,20.0001,NaN,NaN,NaN,NaN,""
10287.8,24.3063,19.9999,NaN,NaN,NaN,NaN,""
10299.6,24.3115,19.9997,NaN,NaN,NaN,NaN,""
10312.9,24.279,19.9998,NaN,NaN,NaN,NaN,""
10331,24.2348,20.0001,NaN,NaN,NaN,NaN,""
10348.7,24.2733,19.9999,NaN,NaN,NaN,NaN,""
10358.6,24.2943,19.9998,NaN,NaN,NaN,NaN,""
10376.4,24.2914,19.9997,NaN,NaN,NaN,NaN,""
10453.6,24.2789,20.0001,NaN,NaN,NaN,NaN,""
10495.9,24.2814,20.0002,NaN,NaN,NaN,NaN,""
10538.1,24.2839,20,NaN,NaN,NaN,NaN,""
10554.2,24.2425,20.0001,NaN,NaN,NaN,NaN,""
10570.3,24.2012,20.0003,NaN,NaN,NaN,NaN,""
10599.1,24.2434,20.0006,NaN,NaN,NaN,NaN,""
10610.5,24.2516,20.0003,NaN,NaN,NaN,NaN,""
10622,24.2522,20,NaN,NaN,NaN,NaN,""
10650.6,24.2538,19.9991,NaN,NaN,NaN,NaN,""
10672.4,24.2323,19.9996,NaN,NaN,NaN,NaN,""
10691.8,24.2021,20.0001,NaN,NaN,NaN,NaN,""
10711.9,24.2545,20.0003,NaN,NaN,NaN,NaN,""
10729.5,24.3007,20.0004,NaN,NaN,NaN,NaN,""
10744.9,24.3005,20.0002,NaN,NaN,NaN,NaN,""
10760.1,24.2928,19.9999,NaN,NaN,NaN,NaN,""
10774.2,24.3544,19.9999,NaN,NaN,NaN,NaN,""
10784.3,24.4158,19.9999,NaN,NaN,NaN,NaN,""
10792.3,24.4859,19.9999,NaN,NaN,NaN,NaN,""
10809.4,24.3597,19.9999,NaN,NaN,NaN,NaN,""
10821.1,24.3656,19.9999,NaN,NaN,NaN,NaN,""
10832.8,24.3715,19.9998,NaN,NaN,NaN,NaN,""
10851,24.3033,19.9997,NaN,NaN,NaN,NaN,""
10860.4,24.2929,19.9999,NaN,NaN,NaN,NaN,""
10869.9,24.3084,20.0001,NaN,NaN,NaN,NaN,""
10882,24.324,20,NaN,NaN,NaN,NaN,""
10906.6,24.3076,19.9998,NaN,NaN,NaN,NaN,""
10930.7,24.2939,19.9999,NaN,NaN,NaN,NaN,""
10961.1,24.3036,20.0001,NaN,NaN,NaN,NaN,""
10985.3,24.2979,19.9999,NaN,NaN,NaN,NaN,""
11013.5,24.2629,19.9997,NaN,NaN,NaN,NaN,""
11031.2,24.2859,19.9999,NaN,NaN,NaN,NaN,""
11043.4,24.2852,20,NaN,NaN,NaN,NaN,""
11053.3,24.2507,20,NaN,NaN,NaN,NaN,""
11063.2,24.2348,19.9999,NaN,NaN,NaN,NaN,""
11094,24.2755,19.9995,NaN,NaN,NaN,NaN,""
11104,24.2422,19.9994,NaN,NaN,NaN,NaN,""
11112.5,24.2293,19.9995,NaN,NaN,NaN,NaN,""
11120.5,24.2784,19.9996,NaN,NaN,NaN,NaN,""
11155.1,24.2686,20.0001,NaN,NaN,NaN,NaN,""
11209,24.2532,19.9997,NaN,NaN,NaN,NaN,""
11236.4,24.2735,19.9996,NaN,NaN,NaN,NaN,""
11263.8,24.2955,19.9996,NaN,NaN,NaN,NaN,""
11275.4,24.2878,19.9999,NaN,NaN,NaN,NaN,""
11286.9,24.2795,20.0002,NaN,NaN,NaN,NaN,""
11318.8,24.2567,20.0003,NaN,NaN,NaN,NaN,""
11333.5,24.2529,20,NaN,NaN,NaN,NaN,""
11348.2,24.2502,19.9998,NaN,NaN,NaN,NaN,""
11365.2,24.2472,19.9996,NaN,NaN,NaN,NaN,""
11375.1,24.2102,19.9996,NaN,NaN,NaN,NaN,""
11381.6,24.2082,19.9997,NaN,NaN,NaN,NaN,""
11393.3,24.2451,20,NaN,NaN,NaN,NaN,""
11402.2,24.2558,20,NaN,NaN,NaN,NaN,""
11444.1,24.269,19.9999,NaN,NaN,NaN,NaN,""
11497.9,24.2859,19.9993,NaN,NaN,NaN,NaN,""
11530.7,24.2962,19.9999,NaN,NaN,NaN,NaN,""
11548.2,24.3017,19.9998,NaN,NaN,NaN,NaN,""
11559.5,24.3077,19.9998,NaN,NaN,NaN,NaN,""
11596,24.327,20,NaN,NaN,NaN,NaN,""
11635.6,24.3395,19.9999,NaN,NaN,NaN,NaN,""
11652,24.2703,19.9999,NaN,NaN,NaN,NaN,""
11691.6,24.2815,19.9998,NaN,NaN,NaN,NaN,""
11752.4,24.2988,19.9996,NaN,NaN,NaN,NaN,""
11783.7,24.3063,19.9999,NaN,NaN,NaN,NaN,""
11802.6,24.3107,20.0002,NaN,NaN,NaN,NaN,""
11833.9,24.2384,20.0001,NaN,NaN,NaN,NaN,""
11846.8,24.2455,20.0001,NaN,NaN,NaN,NaN,""
11852.3,24.2744,20,NaN,NaN,NaN,NaN,""
11883.4,24.2562,19.9999,NaN,NaN,NaN,NaN,""
11903.7,24.2996,19.9999,NaN,NaN,NaN,NaN,""
11923.9,24.3429,19.9999,NaN,NaN,NaN,NaN,""
11962.8,24.344,20,NaN,NaN,NaN,NaN,""
12006.1,24.3589,20,NaN,NaN,NaN,NaN,""
12026.5,24.3481,19.9998,NaN,NaN,NaN,NaN,""
12046.9,24.3227,19.9996,NaN,NaN,NaN,NaN,""
12084.9,24.2754,19.9998,NaN,NaN,NaN,NaN,""
12116.7,24.298,20,NaN,NaN,NaN,NaN,""
12140.3,24.3016,20.0001,NaN,NaN,NaN,NaN,""
12158.5,24.2855,20.0002,NaN,NaN,NaN,NaN,""
12174.1,24.3044,20.0002,NaN,NaN,NaN,NaN,""
12185.1,24.3005,20.0001,NaN,NaN,NaN,NaN,""
12207.9,24.2427,19.9997,NaN,NaN,NaN,NaN,""
12218.1,24.3169,19.9996,NaN,NaN,NaN,NaN,""
12228.3,24.3911,19.9997,NaN,NaN,NaN,NaN,""
12247.6,24.3086,19.9998,NaN,NaN,NaN,NaN,""
12262.7,24.3459,20,NaN,NaN,NaN,NaN,""
12277.7,24.3832,20,NaN,NaN,NaN,NaN,""
12296.9,24.3684,20,NaN,NaN,NaN,NaN,""
12313.8,24.4033,19.9997,NaN,NaN,NaN,NaN,""
12327.3,24.431,19.9994,NaN,NaN,NaN,NaN,""
12340,24.4292,19.9997,NaN,NaN,NaN,NaN,""
12352.8,24.4169,19.9999,NaN,NaN,NaN,NaN,""
12378.6,24.3922,20.0001,NaN,NaN,NaN,NaN,""
12413.6,24.3316,20.0004,NaN,NaN,NaN,NaN,""
12439,24.3483,20.0005,NaN,NaN,NaN,NaN,""
12462.9,24.3641,20.0005,NaN,NaN,NaN,NaN,""
12471.1,24.355,20.0002,NaN,NaN,NaN,NaN,""
12479.3,24.3425,19.9998,NaN,NaN,NaN,NaN,""
12492.2,24.3318,19.9998,NaN,NaN,NaN,NaN,""
12509.9,24.3816,19.9997,NaN,NaN,NaN,NaN,""
12531.9,24.3774,19.9997,NaN,NaN,NaN,NaN,""
12553.9,24.3732,19.9997,NaN,NaN,NaN,NaN,""
12582.6,24.3351,19.9998,NaN,NaN,NaN,NaN,""
12592.9,24.3215,19.9999,NaN,NaN,NaN,NaN,""
12599,24.365,20,NaN,NaN,NaN,NaN,""
12612.8,24.3593,20.0002,NaN,NaN,NaN,NaN,""
12629.4,24.3525,19.9999,NaN,NaN,NaN,NaN,""
12657.2,24.3419,19.9998,NaN,NaN,NaN,NaN,""
12685.3,24.339,19.9996,NaN,NaN,NaN,NaN,""
12703.8,24.337,20,NaN,NaN,NaN,NaN,""
12715.8,24.3155,20.0001,NaN,NaN,NaN,NaN,""
12727.9,24.2939,20,NaN,NaN,NaN,NaN,""
12753.7,24.3612,19.9999,NaN,NaN,NaN,NaN,""
12767.9,24.3558,20,NaN,NaN,NaN,NaN,""
12799.4,24.3239,20.0001,NaN,NaN,NaN,NaN,""
12813.2,24.3207,20.0001,NaN,NaN,NaN,NaN,""
12823.1,24.3184,19.9996,NaN,NaN,NaN,NaN,""
12838.3,24.3149,19.9998,NaN,NaN,NaN,NaN,""
12897.7,24.3011,19.9997,NaN,NaN,NaN,NaN,""
12909.4,24.2984,19.9998,NaN,NaN,NaN,NaN,""
12916.4,24.3581,19.9998,NaN,NaN,NaN,NaN,""
12950.3,24.3423,20,NaN,NaN,NaN,NaN,""
12971.5,24.3325,19.9999,NaN,NaN,NaN,NaN,""
12992.7,24.3263,19.9999,NaN,NaN,NaN,NaN,""
13017.5,24.319,20.0001,NaN,NaN,NaN,NaN,""
13030.6,24.3466,19.9998,NaN,NaN,NaN,NaN,""
13041.9,24.3706,19.9995,NaN,NaN,NaN,NaN,""
13053.6,24.3667,19.9994,NaN,NaN,NaN,NaN,""
13064.9,24.2972,19.9994,NaN,NaN,NaN,NaN,""
13073.7,24.3112,19.9996,NaN,NaN,NaN,NaN,""
13086.2,24.3805,19.9999,NaN,NaN,NaN,NaN,""
13098.6,24.3586,20,NaN,NaN,NaN,NaN,""
13110.9,24.3368,20,NaN,NaN,NaN,NaN,""
13128.3,24.4272,19.9999,NaN,NaN,NaN,NaN,""
13144.2,24.4055,19.9998,NaN,NaN,NaN,NaN,""
13157.9,24.3926,19.9998,NaN,NaN,NaN,NaN,""
13206.4,24.4552,20.0001,NaN,NaN,NaN,NaN,""
13208.4,24.4578,20.0001,NaN,NaN,NaN,NaN,""
13231.5,24.3963,20.0001,NaN,NaN,NaN,NaN,""
13246.9,24.4578,20.0001,NaN,NaN,NaN,NaN,""
13285.4,24.4186,20.0001,NaN,NaN,NaN,NaN,""
13342.4,24.3227,20.0001,NaN,NaN,NaN,NaN,""
13353.9,24.3613,20.0001,NaN,NaN,NaN,NaN,""
13357.1,24.3577,20.0001,NaN,NaN,NaN,NaN,""
13376,24.3361,19.9995,NaN,NaN,NaN,NaN,""
13388.5,24.3253,19.9996,NaN,NaN,NaN,NaN,""
13401,24.3285,19.9996,NaN,NaN,NaN,NaN,""
13418.9,24.3331,20.0003,NaN,NaN,NaN,NaN,""
13452.9,24.3418,20,NaN,NaN,NaN,NaN,""
13485.3,24.3501,20.0003,NaN,NaN,NaN,NaN,""
13489.2,24.3511,20.0002,NaN,NaN,NaN,NaN,""
13513.9,24.3319,19.9998,NaN,NaN,NaN,NaN,""
13535,24.3155,19.9998,NaN,NaN,NaN,NaN,""
13553.3,24.3649,19.9998,NaN,NaN,NaN,NaN,""
13563.1,24.3451,19.9996,NaN,NaN,NaN,NaN,""
13580.7,24.2958,19.9993,NaN,NaN,NaN,NaN,""
13594,24.3255,19.9995,NaN,NaN,NaN,NaN,""
13605.7,24.3504,19.9996,NaN,NaN,NaN,NaN,""
13621.2,24.3308,19.9997,NaN,NaN,NaN,NaN,""
13636.7,24.3128,19.9997,NaN,NaN,NaN,NaN,""
13663.7,24.3213,19.9996,NaN,NaN,NaN,NaN,""
13688.4,24.332,19.9997,NaN,NaN,NaN,NaN,""
13723.5,24.3741,19.9999,NaN,NaN,NaN,NaN,""
13745.2,24.3123,20,NaN,NaN,NaN,NaN,""
13765.1,24.317,19.9999,NaN,NaN,NaN,NaN,""
13784.9,24.3218,19.9998,NaN,NaN,NaN,NaN,""
13815.2,24.3873,19.9996,NaN,NaN,NaN,NaN,""
13830.6,24.3314,19.9999,NaN,NaN,NaN,NaN,""
13838.2,24.3785,20,NaN,NaN,NaN,NaN,""
13849.9,24.4549,20.0002,NaN,NaN,NaN,NaN,""
13860.6,24.448,20.0002,NaN,NaN,NaN,NaN,""
13871.4,24.4411,20.0002,NaN,NaN,NaN,NaN,""
13894.2,24.3707,20.0001,NaN,NaN,NaN,NaN,""
13905.8,24.485,20.0002,NaN,NaN,NaN,NaN,""
13912.5,24.4858,20.0002,NaN,NaN,NaN,NaN,""
13924.6,24.432,20.0003,NaN,NaN,NaN,NaN,""
13936.4,24.4643,20.0003,NaN,NaN,NaN,NaN,""
13948.1,24.4966,20.0001,NaN,NaN,NaN,NaN,""
13973,24.4781,19.9997,NaN,NaN,NaN,NaN,""
14011.2,24.4497,19.9999,NaN,NaN,NaN,NaN,""
14043.5,24.4362,19.9997,NaN,NaN,NaN,NaN,""
14075.1,24.4236,19.9995,NaN,NaN,NaN,NaN,""
14077.6,24.4124,19.9994,NaN,NaN,NaN,NaN,""
14090.6,24.3537,19.9998,NaN,NaN,NaN,NaN,""
14105.8,24.3542,20.0002,NaN,NaN,NaN,NaN,""
14137.4,24.3551,20,NaN,NaN,NaN,NaN,""
14171.9,24.3562,20.0005,NaN,NaN,NaN,NaN,""
14184.8,24.3566,20,NaN,NaN,NaN,NaN,""
14195.2,24.3654,19.9998,NaN,NaN,NaN,NaN,""
14230,24.3949,19.9998,NaN,NaN,NaN,NaN,""
14244.1,24.3266,19.9999,NaN,NaN,NaN,NaN,""
14304.6,24.3484,20,NaN,NaN,NaN,NaN,""
14326.7,24.3455,19.9998,NaN,NaN,NaN,NaN,""
14348.7,24.3404,19.9996,NaN,NaN,NaN,NaN,""
14373.6,24.3346,20.0001,NaN,NaN,NaN,NaN,""
14379.1,24.3333,20,NaN,NaN,NaN,NaN,""
14399,24.4329,19.9997,NaN,NaN,NaN,NaN,""
14409.5,24.4079,19.9996,NaN,NaN,NaN,NaN,""
14420,24.3829,19.9996,NaN,NaN,NaN,NaN,""
14440.6,24.3341,19.9995,NaN,NaN,NaN,NaN,""
14453.3,24.3468,19.9998,NaN,NaN,NaN,NaN,""
14472.7,24.4063,20.0001,NaN,NaN,NaN,NaN,""
14485.3,24.3815,20.0003,NaN,NaN,NaN,NaN,""
14497.9,24.3566,20.0002,NaN,NaN,NaN,NaN,""
14527.5,24.3543,20,NaN,NaN,NaN,NaN,""
14539.1,24.4415,19.9999,NaN,NaN,NaN,NaN,""
14553.3,24.3652,19.9998,NaN,NaN,NaN,NaN,""
14560.7,24.3865,19.9998,NaN,NaN,NaN,NaN,""
14577.2,24.443,19.9999,NaN,NaN,NaN,NaN,""
14586.6,24.3617,19.9999,NaN,NaN,NaN,NaN,""
14607,24.3819,19.9999,NaN,NaN,NaN,NaN,""
14626.6,24.4028,19.9997,NaN,NaN,NaN,NaN,""
14654.9,24.4859,19.9995,NaN,NaN,NaN,NaN,""
14669.4,24.4867,19.9998,NaN,NaN,NaN,NaN,""
14683.8,24.4684,20,NaN,NaN,NaN,NaN,""
14706.9,24.4381,20.0001,NaN,NaN,NaN,NaN,""
14724.6,24.4032,20.0001,NaN,NaN,NaN,NaN,""
14755.5,24.4766,20.0001,NaN,NaN,NaN,NaN,""
14767.7,24.458,20.0001,NaN,NaN,NaN,NaN,""
14779.6,24.4407,20,NaN,NaN,NaN,NaN,""
14801.7,24.4475,19.9997,NaN,NaN,NaN,NaN,""
14808.9,24.3666,19.9996,NaN,NaN,NaN,NaN,""
14830.7,24.3645,20.0001,NaN,NaN,NaN,NaN,""
14843.3,24.3633,20.0002,NaN,NaN,NaN,NaN,""
14862.3,24.3615,20,NaN,NaN,NaN,NaN,""
14890.7,24.3588,19.9997,NaN,NaN,NaN,NaN,""
14907.8,24.347,19.9996,NaN,NaN,NaN,NaN,""
14938.1,24.326,19.9997,NaN,NaN,NaN,NaN,""
14960.7,24.3386,19.9995,NaN,NaN,NaN,NaN,""
14975.9,24.3873,19.9994,NaN,NaN,NaN,NaN,""
14998.6,24.3799,19.9995,NaN,NaN,NaN,NaN,""
15031.1,24.3693,19.9998,NaN,NaN,NaN,NaN,""
15053.1,24.3621,20.0004,NaN,NaN,NaN,NaN,""
15065.6,24.358,20,NaN,NaN,NaN,NaN,""
15073,24.3553,19.9999,NaN,NaN,NaN,NaN,""
15139.8,24.3303,19.9999,NaN,NaN,NaN,NaN,""
15170.9,24.3299,20,NaN,NaN,NaN,NaN,""
15202.1,24.3429,20.0001,NaN,NaN,NaN,NaN,""
15233.7,24.3347,19.9997,NaN,NaN,NaN,NaN,""
15241.8,24.3287,19.9996,NaN,NaN,NaN,NaN,""
15265.3,24.3941,19.9994,NaN,NaN,NaN,NaN,""
15276.2,24.4177,19.9995,NaN,NaN,NaN,NaN,""
15287,24.4249,19.9997,NaN,NaN,NaN,NaN,""
15310.4,24.4403,20.0004,NaN,NaN,NaN,NaN,""
15324,24.4205,20.0001,NaN,NaN,NaN,NaN,""
15337.6,24.3919,19.9998,NaN,NaN,NaN,NaN,""
15353.1,24.4153,19.9999,NaN,NaN,NaN,NaN,""
15363.9,24.464,20,NaN,NaN,NaN,NaN,""
15374.7,24.5092,20.0002,NaN,NaN,NaN,NaN,""
15382.1,24.5187,20.0001,NaN,NaN,NaN,NaN,""
15408.8,24.4709,19.9999,NaN,NaN,NaN,NaN,""
15426.6,24.4695,20.0001,NaN,NaN,NaN,NaN,""
15454.4,24.4879,20.0004,NaN,NaN,NaN,NaN,""
15475.8,24.4698,20.0003,NaN,NaN,NaN,NaN,""
15522.7,24.4206,20.0002,NaN,NaN,NaN,NaN,""
15560.9,24.3972,20,NaN,NaN,NaN,NaN,""
15599.1,24.3739,19.9998,NaN,NaN,NaN,NaN,""
15628,24.3886,19.9997,NaN,NaN,NaN,NaN,""
15656.9,24.4033,19.9998,NaN,NaN,NaN,NaN,""
15681.8,24.3541,19.9998,NaN,NaN,NaN,NaN,""
15703.2,24.399,19.9999,NaN,NaN,NaN,NaN,""
15715.7,24.4071,19.9998,NaN,NaN,NaN,NaN,""
15741.7,24.4085,19.9996,NaN,NaN,NaN,NaN,""
15761.5,24.3934,20,NaN,NaN,NaN,NaN,""
15781.4,24.3567,20.0004,NaN,NaN,NaN,NaN,""
15798,24.3761,20.0002,NaN,NaN,NaN,NaN,""
15807.8,24.3913,20,NaN,NaN,NaN,NaN,""
15820.4,24.3732,19.9999,NaN,NaN,NaN,NaN,""
15832.9,24.3613,19.9997,NaN,NaN,NaN,NaN,""
15859.7,24.4042,19.9994,NaN,NaN,NaN,NaN,""
15875.1,24.4089,19.9995,NaN,NaN,NaN,NaN,""
15890.4,24.4136,19.9997,NaN,NaN,NaN,NaN,""
15908.7,24.3467,19.9998,NaN,NaN,NaN,NaN,""
15916.3,24.426,19.9998,NaN,NaN,NaN,NaN,""
15923.9,24.5052,19.9997,NaN,NaN,NaN,NaN,""
15951.4,24.4714,19.9994,NaN,NaN,NaN,NaN,""
15968.3,24.431,19.9997,NaN,NaN,NaN,NaN,""
15987.1,24.3728,20.0001,NaN,NaN,NaN,NaN,""
16006.3,24.4114,20.0001,NaN,NaN,NaN,NaN,""
16013.9,24.4464,20.0001,NaN,NaN,NaN,NaN,""
16030.6,24.46,20,NaN,NaN,NaN,NaN,""
16042.5,24.4968,20,NaN,NaN,NaN,NaN,""
16054.4,24.5336,19.9999,NaN,NaN,NaN,NaN,""
16082.3,24.4475,19.9998,NaN,NaN,NaN,NaN,""
16100.7,24.4589,20,NaN,NaN,NaN,NaN,""
16119.1,24.4704,20.0002,NaN,NaN,NaN,NaN,""
16142.6,24.4809,20.0002,NaN,NaN,NaN,NaN,""
16166.2,24.4914,19.9999,NaN,NaN,NaN,NaN,""
16192.5,24.4736,19.9997,NaN,NaN,NaN,NaN,""
16231.5,24.4471,20,NaN,NaN,NaN,NaN,""
16237.4,24.4431,20,NaN,NaN,NaN,NaN,""
16253.4,24.4726,20.0002,NaN,NaN,NaN,NaN,""
16280.2,24.4238,20.0004,NaN,NaN,NaN,NaN,""
16295.5,24.3958,20.0003,NaN,NaN,NaN,NaN,""
16308.9,24.3937,20.0001,NaN,NaN,NaN,NaN,""
16329.5,24.3906,20.0003,NaN,NaN,NaN,NaN,""
16353.3,24.387,19.9999,NaN,NaN,NaN,NaN,""
16368.2,24.4063,19.9998,NaN,NaN,NaN,NaN,""
16390.4,24.4348,19.9998,NaN,NaN,NaN,NaN,""
16404.1,24.3604,19.9997,NaN,NaN,NaN,NaN,""
[...]
177926,23.9662,20,0.00207796,962.283,0.00048505,224.623,""
178503,23.9608,19.9996,0.00207005,963.479,0.000483206,224.902,""
179114,23.9553,19.9996,0.00206051,964.741,0.000480977,225.196,""
179416,23.9445,19.9997,0.00205598,965.362,0.000479921,225.341,""
179976,23.9358,19.9995,0.00204836,966.513,0.000478142,225.61,""
180367,23.9215,19.9998,0.00204338,967.313,0.00047698,225.797,""
180914,23.9417,19.9997,0.00203527,968.428,0.000475086,226.057,""
181453,23.9481,19.9994,0.00202836,969.523,0.000473473,226.312,""
181934,23.9482,20,0.00202195,970.497,0.000471978,226.54,""
182389,23.9617,19.9999,0.00201636,971.416,0.000470673,226.754,""
182772,23.9607,20.0001,0.00201102,972.186,0.000469426,226.934,""
183271,23.9767,19.9999,0.00200457,973.189,0.000467921,227.168,""
183774,23.9335,20.0004,0.00199849,974.196,0.000466501,227.403,""
184099,23.9486,20.0002,0.00199446,974.846,0.00046556,227.555,""
184490,23.9518,20.0003,0.00198977,975.623,0.000464465,227.736,""
184850,23.9917,20.0003,0.00198469,976.34,0.00046328,227.904,""
185253,23.9995,19.9997,0.00197975,977.137,0.000462126,228.09,""
185741,23.9773,19.9998,0.0019742,978.102,0.00046083,228.315,""
186145,23.9747,19.9989,0.00196914,978.899,0.000459651,228.501,""
186619,23.9571,20.0002,0.00196373,979.831,0.000458386,228.719,""
186982,23.9839,19.9998,0.00195919,980.543,0.000457327,228.885,""
187495,23.955,19.9998,0.00195279,981.546,0.000455833,229.119,""
187964,23.9476,20.0002,0.00194812,982.461,0.000454744,229.333,""
188311,23.976,20.0002,0.00194421,983.137,0.00045383,229.49,""
188680,24.0012,19.9999,0.00193978,983.853,0.000452796,229.658,""
189208,23.9652,19.9998,0.00193361,984.875,0.000451357,229.896,""
189790,23.9585,19.9998,0.00192747,986,0.000449923,230.159,""
190234,23.9647,19.9998,0.00192246,986.853,0.000448752,230.358,""
190660,23.9509,19.9998,0.00191909,987.672,0.000447967,230.549,""
191155,23.954,19.9999,0.00191224,988.62,0.000446369,230.77,""
191593,23.9673,20.0003,0.00190766,989.457,0.000445299,230.966,""
192063,24.002,19.9999,0.00190264,990.352,0.000444127,231.175,""
192586,23.9972,20,0.00189689,991.346,0.000442784,231.407,""
193003,23.9634,20,0.0018934,992.137,0.000441969,231.591,""
193466,23.9603,19.9998,0.00188827,993.013,0.000440772,231.796,""
193995,23.9076,19.9994,0.00188264,994.009,0.000439458,232.028,""
194472,24.0083,19.9998,0.00187829,994.907,0.000438444,232.238,""
194906,23.9891,19.9996,0.00187398,995.72,0.000437436,232.428,""
195364,24.0214,19.9998,0.00186901,996.577,0.000436278,232.628,""
195765,23.9405,19.9999,0.00186579,997.326,0.000435525,232.803,""
196204,23.9547,20,0.00186047,998.144,0.000434284,232.993,""
196765,23.9653,19.9995,0.00185499,999.186,0.000433004,233.237,""
197241,23.9743,20,0.00185093,1000.07,0.000432056,233.443,""
197665,23.9958,19.9999,0.00184681,1000.85,0.000431096,233.626,""
198255,24.0107,19.9998,0.00184102,1001.94,0.000429744,233.88,""
198681,23.9512,19.9996,0.00183678,1002.72,0.000428754,234.063,""
199259,23.9683,20,0.00183173,1003.78,0.000427574,234.31,""
199749,23.9846,19.9998,0.00182725,1004.68,0.000426529,234.519,""
200190,23.9482,19.9998,0.00182335,1005.49,0.000425618,234.707,""
200572,23.959,19.9996,0.00181953,1006.18,0.000424728,234.87,""
201079,23.938,19.9999,0.00181463,1007.1,0.000423582,235.085,""
201470,23.9855,19.9996,0.00181169,1007.81,0.000422897,235.25,""
201949,23.9989,19.9998,0.00180729,1008.68,0.00042187,235.452,""
202336,24.0118,19.9997,0.00180383,1009.38,0.000421061,235.615,""
202738,23.9698,20.0003,0.00180044,1010.1,0.000420272,235.785,""
203336,23.9491,19.9996,0.00179467,1011.18,0.000418924,236.036,""
203740,23.9668,19.9999,0.0017913,1011.9,0.000418138,236.205,""
204300,23.9504,19.9999,0.00178623,1012.9,0.000416955,236.439,""
204820,23.951,19.9994,0.00178202,1013.83,0.00041597,236.655,""
205308,23.9186,20,0.00177759,1014.7,0.000414937,236.858,""
205730,23.9766,19.9995,0.00177388,1015.45,0.00041407,237.033,""
206255,23.9346,19.9998,0.00176915,1016.38,0.000412967,237.25,""
206663,23.9791,20.0002,0.0017658,1017.1,0.000412184,237.418,""
207119,23.9458,19.9998,0.00176185,1017.9,0.000411262,237.606,""
207617,23.9811,19.9999,0.00175795,1018.78,0.000410353,237.81,""
208000,23.9434,19.9999,0.00175469,1019.45,0.000409591,237.967,""
208413,23.9718,20,0.00175105,1020.18,0.000408741,238.137,""
208673,23.9728,19.9998,0.00174878,1020.63,0.000408213,238.243,""
209112,23.9508,19.9995,0.00174513,1021.4,0.000407361,238.422,""
209544,23.9763,20.0003,0.00174237,1022.15,0.000406717,238.597,""
209896,23.9468,20.0002,0.00173861,1022.77,0.000405838,238.741,""
210351,23.9381,20,0.00173481,1023.55,0.000404951,238.925,""
210769,23.9725,19.9996,0.00173121,1024.28,0.00040411,239.094,""
211057,23.9576,20.0003,0.00172898,1024.78,0.000403589,239.21,""
211595,23.9257,19.9992,0.00172406,1025.71,0.000402443,239.427,""
212179,23.9411,19.9998,0.00171975,1026.71,0.000401435,239.662,""
212677,23.9604,19.9997,0.00171525,1027.57,0.000400386,239.861,""
213057,23.9611,19.9996,0.00171234,1028.22,0.000399705,240.013,""
213493,23.9398,20.0001,0.00170858,1028.96,0.000398828,240.188,""
213862,23.9894,19.9997,0.0017056,1029.59,0.000398133,240.335,""
214263,23.9397,19.9997,0.0017025,1030.28,0.000397409,240.494,""
214764,23.9278,19.9998,0.00169793,1031.13,0.000396342,240.693,""
215197,23.9417,19.9996,0.00169486,1031.86,0.000395625,240.864,""
215638,23.9241,20.0001,0.00169113,1032.61,0.000394754,241.039,""
216111,23.9512,19.9996,0.00168696,1033.41,0.000393782,241.225,""
216487,23.9398,19.9995,0.00168412,1034.04,0.000393118,241.373,""
216941,23.9156,19.9998,0.00168072,1034.81,0.000392325,241.551,""
217442,23.9459,20.0002,0.00167665,1035.65,0.000391374,241.748,""
217794,23.8879,19.9998,0.00167407,1036.24,0.000390772,241.885,""
218247,23.9588,20,0.00167027,1036.99,0.000389885,242.062,""
218702,23.9447,19.9994,0.00166643,1037.75,0.000388989,242.239,""
219220,23.9339,20,0.00166245,1038.62,0.00038806,242.441,""
219664,23.9234,19.9996,0.00166055,1039.35,0.000387617,242.613,""
220003,23.9364,19.9998,0.00165568,1039.92,0.00038648,242.744,""
220372,23.8707,19.9997,0.00165299,1040.53,0.000385851,242.887,""
220839,23.9302,19.9998,0.00164976,1041.3,0.000385097,243.066,""
221299,23.8927,19.9998,0.00164568,1042.06,0.000384147,243.244,""
221612,23.9446,19.9998,0.00164439,1042.57,0.000383844,243.364,""
222097,23.9368,19.9999,0.00163907,1043.37,0.000382603,243.549,""
222547,23.925,19.9997,0.00163566,1044.1,0.000381806,243.722,""
223096,23.909,19.9997,0.00163153,1045,0.000380844,243.931,""
223616,23.9018,19.9997,0.00162747,1045.85,0.000379895,244.129,""
224083,23.9273,19.9996,0.00162327,1046.61,0.000378914,244.306,""
224541,23.9221,19.9998,0.00162001,1047.35,0.000378153,244.479,""
224990,23.8541,19.9999,0.00161643,1048.08,0.000377318,244.649,""
225416,23.9023,19.9997,0.00161301,1048.76,0.000376519,244.81,""
226110,23.8659,19.9992,0.00160735,1049.88,0.000375199,245.07,""
226594,23.9389,19.9998,0.00160359,1050.66,0.000374322,245.251,""
227220,23.9,19.9996,0.00159851,1051.66,0.000373135,245.485,""
227811,23.8969,19.9998,0.00159406,1052.6,0.000372096,245.706,""
228193,23.9238,19.9997,0.00159098,1053.21,0.000371377,245.848,""
228532,23.9204,19.9998,0.00158846,1053.75,0.00037079,245.974,""
228983,23.9254,19.9996,0.00158483,1054.47,0.000369942,246.141,""
229453,23.9379,19.9997,0.00158138,1055.21,0.000369136,246.314,""
229939,23.8835,20,0.00157757,1055.98,0.000368248,246.494,""
230449,23.8358,19.9997,0.00157353,1056.78,0.000367305,246.681,""
230769,23.9302,19.9999,0.00157131,1057.28,0.000366787,246.798,""
231210,23.8689,19.9997,0.00156752,1057.98,0.000365902,246.96,""
231604,23.8979,20.0002,0.00156467,1058.59,0.000365236,247.104,""
232149,23.9304,20.0002,0.00156025,1059.44,0.000364204,247.303,""
232784,23.8925,19.9998,0.00155536,1060.44,0.000363062,247.534,""
233246,23.8659,19.9996,0.00155147,1061.15,0.000362155,247.701,""
233641,23.8533,19.9997,0.0015487,1061.77,0.000361508,247.844,""
234050,23.8887,19.9999,0.00154544,1062.4,0.000360748,247.992,""
234457,23.8857,19.9999,0.00154244,1063.03,0.000360047,248.139,""
234807,23.8794,19.9993,0.00153951,1063.56,0.000359364,248.264,""
235193,23.8934,19.9997,0.00153676,1064.16,0.000358721,248.403,""
235581,23.9,19.9998,0.00153345,1064.75,0.000357948,248.542,""
235937,23.8995,19.9998,0.00153104,1065.3,0.000357386,248.67,""
236459,23.8581,19.9996,0.00152712,1066.1,0.000356471,248.856,""
236921,23.8455,19.9994,0.00152339,1066.8,0.000355599,249.02,""
237501,23.8667,19.9999,0.00151882,1067.69,0.000354534,249.226,""
237834,23.8668,20.0001,0.00151622,1068.19,0.000353926,249.344,""
238313,23.8621,20.0003,0.00151263,1068.92,0.000353087,249.514,""
238675,23.8698,19.9998,0.00151028,1069.46,0.00035254,249.641,""
239211,23.8417,19.9998,0.00150594,1070.27,0.000351527,249.83,""
239639,23.8758,19.9993,0.00150271,1070.92,0.000350772,249.98,""
240048,23.8509,20.0001,0.00149947,1071.53,0.000350016,250.124,""
240400,23.8165,19.9998,0.00149698,1072.06,0.000349435,250.247,""
240945,23.8678,19.9992,0.00149283,1072.87,0.000348467,250.437,""
241433,23.8629,19.9997,0.0014895,1073.6,0.000347689,250.607,""
242082,23.892,20,0.00148447,1074.56,0.000346515,250.832,""
242476,23.8644,19.9999,0.00148185,1075.15,0.000345904,250.968,""
242958,23.7891,19.9997,0.00147834,1075.86,0.000345085,251.135,""
243333,23.8513,19.999,0.0014753,1076.42,0.000344375,251.264,""
243745,23.8612,19.9995,0.0014723,1077.02,0.000343673,251.406,""
244213,23.8532,19.9999,0.00146902,1077.71,0.000342909,251.567,""
244701,23.8482,19.9998,0.0014655,1078.43,0.000342086,251.734,""
245081,23.8625,19.9998,0.00146241,1078.98,0.000341365,251.863,""
245493,23.8461,19.9999,0.00145969,1079.59,0.00034073,252.004,""
246036,23.8604,19.9998,0.00145535,1080.38,0.000339718,252.189,""
246376,23.8696,19.9998,0.00145296,1080.87,0.000339159,252.304,""
246764,23.8645,19.9995,0.0014502,1081.43,0.000338516,252.436,""
247303,23.8436,19.9996,0.00144667,1082.22,0.00033769,252.618,""
247739,23.9167,19.9995,0.00144322,1082.85,0.000336885,252.765,""
248137,23.8441,19.9998,0.00144075,1083.42,0.00033631,252.899,""
248560,23.9109,20.0001,0.00143692,1084.03,0.000335416,253.041,""
249077,23.8272,19.9998,0.00143307,1084.77,0.000334517,253.214,""
249512,23.8736,19.9998,0.00142988,1085.39,0.000333773,253.36,""
250042,23.8563,19.9995,0.00142592,1086.15,0.000332849,253.536,""
250431,23.8759,19.9993,0.0014229,1086.7,0.000332142,253.666,""
250774,23.8532,20.0002,0.00142064,1087.19,0.000331614,253.78,""
251198,23.8555,19.9999,0.00141734,1087.79,0.000330845,253.92,""
251587,23.854,20.0006,0.00141438,1088.34,0.000330154,254.049,""
252050,23.8313,20.0004,0.00141153,1089,0.000329489,254.201,""
252527,23.8456,19.9996,0.00140788,1089.67,0.000328636,254.358,""
252876,23.8413,19.9996,0.00140523,1090.16,0.000328018,254.473,""
253327,23.8314,19.9996,0.00140206,1090.8,0.000327278,254.621,""
253926,23.8376,20.0001,0.00139773,1091.63,0.000326268,254.816,""
254497,23.8378,19.9999,0.00139363,1092.43,0.00032531,255.002,""
255014,23.8612,19.9996,0.00138997,1093.15,0.000324457,255.17,""
255501,23.8176,19.9996,0.00138632,1093.83,0.000323604,255.328,""
255918,23.7695,19.9998,0.00138325,1094.4,0.000322887,255.463,""
256464,23.7892,20,0.00137926,1095.16,0.000321956,255.639,""
256884,23.8573,19.9993,0.00137632,1095.74,0.000321271,255.774,""
257197,23.8753,20,0.0013741,1096.17,0.000320751,255.874,""
257535,23.8616,19.9996,0.00137197,1096.63,0.000320255,255.983,""
257939,23.8603,19.9998,0.00136888,1097.18,0.000319533,256.112,""
258388,23.8713,19.9997,0.00136596,1097.8,0.000318852,256.255,""
258762,23.8638,19.9996,0.00136308,1098.31,0.000318178,256.374,""
259190,23.8589,20,0.00136018,1098.89,0.000317503,256.51,""
259644,23.9029,19.9997,0.00135713,1099.51,0.00031679,256.655,""
259976,23.8901,19.9996,0.00135466,1099.96,0.000316214,256.76,""
260430,23.8879,20,0.0013513,1100.57,0.00031543,256.903,""
260819,23.8652,19.9999,0.00134835,1101.1,0.000314741,257.026,""
261186,23.8874,20.0001,0.00134605,1101.59,0.000314204,257.141,""
261694,23.9226,19.9999,0.0013427,1102.27,0.000313423,257.3,""
262156,23.962,20,0.00133933,1102.89,0.000312636,257.445,""
262644,23.9142,19.9998,0.00133591,1103.55,0.000311837,257.597,""
263101,23.9249,19.9997,0.00133284,1104.16,0.000311121,257.74,""
263627,24.0013,19.9996,0.00132909,1104.86,0.000310244,257.903,""
264148,23.9545,20,0.00132566,1105.55,0.000309444,258.064,""
264648,23.9789,19.9998,0.00132214,1106.21,0.000308622,258.219,""
265053,23.9262,19.9997,0.00131905,1106.75,0.000307901,258.344,""
265536,23.9649,20,0.00131603,1107.38,0.000307197,258.493,""
266015,23.9669,19.9997,0.00131282,1108.01,0.000306448,258.639,""
266385,23.9561,19.9999,0.00131015,1108.5,0.000305825,258.753,""
266758,23.9258,20,0.00130779,1108.98,0.000305273,258.867,""
267128,24.0167,20.0003,0.00130532,1109.47,0.000304696,258.979,""
267620,23.9635,19.9997,0.00130195,1110.11,0.00030391,259.129,""
268144,23.9654,20.0002,0.00129819,1110.79,0.000303033,259.288,""
268550,23.9349,19.9998,0.00129537,1111.32,0.000302374,259.411,""
268976,23.9908,19.9996,0.00129252,1111.87,0.000301708,259.54,""
269313,23.9522,19.9999,0.00129006,1112.3,0.000301135,259.642,""
269927,23.9766,19.9998,0.00128588,1113.1,0.000300158,259.826,""
270382,23.9535,19.9997,0.00128237,1113.68,0.000299339,259.962,""
270766,23.9788,20.0001,0.0012805,1114.17,0.000298903,260.077,""
271126,23.9565,19.9996,0.00127793,1114.63,0.000298303,260.185,""
271528,23.9799,20.0001,0.00127472,1115.14,0.000297554,260.304,""
271975,23.9579,19.9995,0.00127156,1115.71,0.000296816,260.437,""
272480,23.9618,19.9998,0.00126837,1116.35,0.000296071,260.587,""
273007,23.9546,19.9999,0.00126515,1117.02,0.000295319,260.743,""
273361,23.9777,19.9999,0.001263,1117.47,0.000294818,260.847,""
273798,23.978,20.0001,0.0012596,1118.02,0.000294024,260.976,""
274135,23.9507,19.9995,0.00125748,1118.45,0.00029353,261.075,""
274630,23.9359,20.0001,0.00125424,1119.07,0.000292774,261.22,""
275066,23.9314,19.9995,0.00125125,1119.61,0.000292076,261.348,""
275440,23.9507,19.9999,0.0012487,1120.08,0.000291481,261.457,""
275868,23.9384,19.9998,0.00124606,1120.61,0.000290863,261.581,""
276360,23.9058,19.9995,0.00124234,1121.23,0.000289995,261.724,""
276745,23.9791,19.9999,0.00124037,1121.7,0.000289536,261.836,""
277143,23.956,20.0002,0.00123758,1122.2,0.000288884,261.951,""
277606,23.9943,19.9997,0.00123439,1122.77,0.000288141,262.085,""
278088,23.9764,19.9997,0.00123106,1123.36,0.000287362,262.223,""
278662,23.9721,19.9999,0.00122688,1124.07,0.000286386,262.388,""
279288,23.9513,20.0002,0.00122324,1124.84,0.000285537,262.567,""
279614,23.9897,19.9995,0.00122109,1125.24,0.000285035,262.66,""
279982,24.0143,20.0008,0.00121866,1125.68,0.000284467,262.765,""
280352,24.1116,20.0001,0.00121642,1126.13,0.000283944,262.87,""
280759,24.1761,19.9997,0.00121347,1126.63,0.000283256,262.985,""
281294,24.1735,19.9992,0.00121037,1127.28,0.000282532,263.137,""
281859,24.2131,20.0003,0.00120647,1127.96,0.000281623,263.296,""
282419,24.2169,19.9997,0.00120279,1128.63,0.000280764,263.453,""
283007,24.1807,20,0.00119922,1129.34,0.00027993,263.618,""
283506,24.1408,19.9997,0.00119615,1129.94,0.000279213,263.758,""
283925,24.2137,19.9997,0.00119371,1130.44,0.000278645,263.875,""
284230,24.1884,20.0001,0.00119156,1130.8,0.000278143,263.96,""
284615,24.1816,19.9996,0.0011891,1131.26,0.000277567,264.067,""
285108,24.1764,19.9997,0.00118601,1131.85,0.000276847,264.203,""
285605,24.1754,19.9999,0.00118282,1132.44,0.000276102,264.341,""
286169,24.2053,19.9997,0.00117918,1133.1,0.000275252,264.496,""
286537,24.1729,19.9995,0.00117712,1133.54,0.000274772,264.597,""
287027,24.1952,20,0.00117377,1134.11,0.00027399,264.732,""
287562,24.1837,19.9999,0.00117069,1134.74,0.000273271,264.878,""
288131,24.2459,20.0001,0.00116684,1135.4,0.000272372,265.034,""
288571,24.1816,19.9995,0.00116427,1135.92,0.000271773,265.153,""
288972,24.2393,19.9996,0.00116177,1136.38,0.000271189,265.262,""
289530,24.2277,19.9997,0.00115845,1137.03,0.000270413,265.413,""
290024,24.2604,19.9999,0.0011553,1137.6,0.000269678,265.547,""
290487,24.2038,19.9999,0.00115244,1138.14,0.00026901,265.671,""
291008,24.1349,19.9997,0.00114939,1138.74,0.000268299,265.811,""
291492,24.1608,19.9998,0.00114644,1139.29,0.000267609,265.941,""
291931,24.112,19.9992,0.0011435,1139.79,0.000266923,266.058,""
292263,24.1304,19.9994,0.0011417,1140.17,0.000266503,266.147,""
292808,24.1295,19.9994,0.00113816,1140.79,0.000265678,266.292,""
293172,24.1454,20.0001,0.00113575,1141.21,0.000265115,266.388,""
293666,24.1075,20.0002,0.00113278,1141.77,0.00026442,266.519,""
294033,24.1011,19.9999,0.00113054,1142.18,0.000263899,266.616,""
294066,24.1051,19.9999,0.00113035,1142.22,0.000263854,266.625,""
294066,24.1051,19.9999,NaN,NaN,NaN,NaN,"Ampoule removed"
294109,24.1103,19.9996,NaN,NaN,NaN,NaN,""
294152,24.0978,19.9993,NaN,NaN,NaN,NaN,""
294201,24.077,19.9999,NaN,NaN,NaN,NaN,""
294227,24.1138,19.9998,NaN,NaN,NaN,NaN,""
294253,24.1505,19.9997,NaN,NaN,NaN,NaN,""
294274,24.1446,19.9997,NaN,NaN,NaN,NaN,""
294295,24.1388,20.0003,NaN,NaN,NaN,NaN,""
294310,24.1271,20.0001,NaN,NaN,NaN,NaN,""
294327,24.1131,19.9994,NaN,NaN,NaN,NaN,""
294348,24.1092,19.9995,NaN,NaN,NaN,NaN,""
294370,24.1271,19.9996,NaN,NaN,NaN,NaN,""
294400,24.1518,19.9996,NaN,NaN,NaN,NaN,""
294428,24.1346,19.9996,NaN,NaN,NaN,NaN,""
294456,24.1171,20.0003,NaN,NaN,NaN,NaN,""
294485,24.1197,20.0002,NaN,NaN,NaN,NaN,""
294574,24.1284,19.9998,NaN,NaN,NaN,NaN,""
294724,24.143,19.9998,NaN,NaN,NaN,NaN,""
294763,24.145,19.9998,NaN,NaN,NaN,NaN,""
294802,24.1471,19.9998,NaN,NaN,NaN,NaN,""
294813,24.056,19.9998,NaN,NaN,NaN,NaN,""
294836,24.1354,19.9998,NaN,NaN,NaN,NaN,""
294870,24.1425,19.9998,NaN,NaN,NaN,NaN,""
294905,24.0897,19.9998,NaN,NaN,NaN,NaN,""
294909,24.1163,19.9998,NaN,NaN,NaN,NaN,""
294918,24.1787,19.9998,NaN,NaN,NaN,NaN,""
294957,24.1193,19.9996,NaN,NaN,NaN,NaN,""
294992,24.1108,19.9998,NaN,NaN,NaN,NaN,""
295003,24.1081,20,NaN,NaN,NaN,NaN,""
295033,24.1009,19.9998,NaN,NaN,NaN,NaN,""
295034,24.1007,19.9998,NaN,NaN,NaN,NaN,""
295066,24.0569,19.9999,NaN,NaN,NaN,NaN,""
295086,24.119,20,NaN,NaN,NaN,NaN,""
295094,24.1198,20,NaN,NaN,NaN,NaN,""
295114,24.1217,20.0005,NaN,NaN,NaN,NaN,""
295135,24.1237,19.9999,NaN,NaN,NaN,NaN,""
295150,24.1279,19.9996,NaN,NaN,NaN,NaN,""
295189,24.1382,19.9997,NaN,NaN,NaN,NaN,""
295200,24.0989,19.9998,NaN,NaN,NaN,NaN,""
295216,24.1401,19.9998,NaN,NaN,NaN,NaN,""
295233,24.1345,19.9998,NaN,NaN,NaN,NaN,""
295251,24.1288,19.9998,NaN,NaN,NaN,NaN,""
295278,24.0792,19.9998,NaN,NaN,NaN,NaN,""
295328,24.1245,19.9997,NaN,NaN,NaN,NaN,""
295342,24.1168,20.0001,NaN,NaN,NaN,NaN,""
295356,24.1056,20.0006,NaN,NaN,NaN,NaN,""
295366,24.0976,20.0003,NaN,NaN,NaN,NaN,""
295375,24.1009,20,NaN,NaN,NaN,NaN,""
295421,24.1176,19.9998,NaN,NaN,NaN,NaN,""
295448,24.1257,19.9998,NaN,NaN,NaN,NaN,""
295476,24.1232,19.9998,NaN,NaN,NaN,NaN,""
295506,24.1204,20.0004,NaN,NaN,NaN,NaN,""
295526,24.1186,20,NaN,NaN,NaN,NaN,""
295558,24.1157,20,NaN,NaN,NaN,NaN,""
295626,24.1095,19.9994,NaN,NaN,NaN,NaN,""
295638,24.1095,19.9998,NaN,NaN,NaN,NaN,""
295650,24.1122,20.0001,NaN,NaN,NaN,NaN,""
295701,24.1236,19.9998,NaN,NaN,NaN,NaN,""
295771,24.1392,19.9999,NaN,NaN,NaN,NaN,""
295791,24.1436,19.9994,NaN,NaN,NaN,NaN,""
295802,24.1338,19.9996,NaN,NaN,NaN,NaN,""
295809,24.1272,19.9997,NaN,NaN,NaN,NaN,""
295824,24.113,19.9994,NaN,NaN,NaN,NaN,""
295846,24.1262,19.9998,NaN,NaN,NaN,NaN,""
295859,24.1548,20,NaN,NaN,NaN,NaN,""
295868,24.0932,20.0002,NaN,NaN,NaN,NaN,""
295874,24.0865,20.0002,NaN,NaN,NaN,NaN,""
295911,24.1598,20,NaN,NaN,NaN,NaN,""
295939,24.1342,19.9999,NaN,NaN,NaN,NaN,""
295967,24.1086,19.9999,NaN,NaN,NaN,NaN,""
296006,24.1895,20,NaN,NaN,NaN,NaN,""
296041,24.1992,20.0001,NaN,NaN,NaN,NaN,""
296061,24.2425,19.9999,NaN,NaN,NaN,NaN,""
296087,24.317,19.9997,NaN,NaN,NaN,NaN,""
296108,24.1736,19.9996,NaN,NaN,NaN,NaN,""
296118,24.1734,19.9996,NaN,NaN,NaN,NaN,""
296133,24.1789,19.9997,NaN,NaN,NaN,NaN,""
296165,24.1476,19.9998,NaN,NaN,NaN,NaN,""
296182,24.2056,19.9999,NaN,NaN,NaN,NaN,""
296222,24.1922,20,NaN,NaN,NaN,NaN,""
296259,24.1811,20.0002,NaN,NaN,NaN,NaN,""
296309,24.2058,20.0005,NaN,NaN,NaN,NaN,""