File: TAInstCalorimetry/DATA/myexp9.csv
Summary
Mass,4g
Name,"OPC"

"Time","Temperature","Heat flow","Heat","Normalized heat flow","Normalized heat","Time markers"
-5402.35,20,NaN,NaN,NaN,NaN,""
-5402.05,20,-1.00519e-05,NaN,-2.51296e-06,NaN,""
-5389.92,20,-1.02441e-05,NaN,-2.56103e-06,NaN,""
-5371.95,20,-9.71671e-06,NaN,-2.42918e-06,NaN,""
-5349.05,20,-9.3509e-06,NaN,-2.33773e-06,NaN,""
-5329.04,20,-9.87433e-06,NaN,-2.46858e-06,NaN,""
-5306.39,20,-9.73553e-06,NaN,-2.43388e-06,NaN,""
-5270.67,20,-1.05732e-05,NaN,-2.64329e-06,NaN,""
-5237.73,20,-9.68119e-06,NaN,-2.4203e-06,NaN,""
-5194.37,20,-9.15042e-06,NaN,-2.2876e-06,NaN,""
-5159.48,20,-8.05346e-06,NaN,-2.01336e-06,NaN,""
-5113.37,20,-8.31206e-06,NaN,-2.07801e-06,NaN,""
-5062.61,20,-7.5729e-06,NaN,-1.89322e-06,NaN,""
-5030.31,20,-7.41251e-06,NaN,-1.85313e-06,NaN,""
-4971.66,20,-6.10272e-06,NaN,-1.52568e-06,NaN,""
-4927.15,20,-6.30923e-06,NaN,-1.57731e-06,NaN,""
-4895.53,20,-5.13115e-06,NaN,-1.28279e-06,NaN,""
-4875.03,20,-4.87849e-06,NaN,-1.21962e-06,NaN,""
-4852.29,20,-4.57166e-06,NaN,-1.14292e-06,NaN,""
-4843.6,20,-4.96815e-06,NaN,-1.24204e-06,NaN,""
-4809.96,20,-4.29493e-06,NaN,-1.07373e-06,NaN,""
-4764.41,20,-3.46573e-06,NaN,-8.66433e-07,NaN,""
-4734.6,20,-2.67675e-06,NaN,-6.69188e-07,NaN,""
-4705.78,20,-1.93389e-06,NaN,-4.83472e-07,NaN,""
-4667.86,20,-1.99537e-06,NaN,-4.98843e-07,NaN,""
-4653.6,20,-1.38027e-06,NaN,-3.45066e-07,NaN,""
-4610.89,20,-1.27342e-06,NaN,-3.18356e-07,NaN,""
-4535.83,20,-1.46052e-07,NaN,-3.65131e-08,NaN,""
-4507.13,20,1.03717e-06,NaN,2.59292e-07,NaN,""
-4475.27,20,6.02328e-07,NaN,1.50582e-07,NaN,""
-4447.94,20,3.87056e-07,NaN,9.6764e-08,NaN,""
-4428.57,20,9.72683e-07,NaN,2.43171e-07,NaN,""
-4409.72,20,9.58305e-07,NaN,2.39576e-07,NaN,""
-4382.86,20,2.16683e-06,NaN,5.41707e-07,NaN,""
-4368.05,20,1.75869e-06,NaN,4.39672e-07,NaN,""
-4332.23,20,2.57608e-06,NaN,6.44019e-07,NaN,""
-4276.93,20,3.15221e-06,NaN,7.88052e-07,NaN,""
-4246.87,20,3.08297e-06,NaN,7.70743e-07,NaN,""
-4233.55,20,3.7524e-06,NaN,9.38101e-07,NaN,""
-4219.89,20,3.62349e-06,NaN,9.05872e-07,NaN,""
-4196.71,20,4.28049e-06,NaN,1.07012e-06,NaN,""
-4171.54,20,4.2711e-06,NaN,1.06778e-06,NaN,""
-4147.61,20,4.9902e-06,NaN,1.24755e-06,NaN,""
-4123.71,20,5.23777e-06,NaN,1.30944e-06,NaN,""
-4100.39,20,5.92845e-06,NaN,1.48211e-06,NaN,""
-4081.68,20,5.8033e-06,NaN,1.45082e-06,NaN,""
-4009.7,20,6.80395e-06,NaN,1.70099e-06,NaN,""
-3990.05,20,6.67808e-06,NaN,1.66952e-06,NaN,""
-3969.64,20,7.34882e-06,NaN,1.83721e-06,NaN,""
-3953.3,20,7.02087e-06,NaN,1.75522e-06,NaN,""
-3904.47,20,7.38045e-06,NaN,1.84511e-06,NaN,""
-3870.8,20,8.59983e-06,NaN,2.14996e-06,NaN,""
-3839.25,20,8.43122e-06,NaN,2.10781e-06,NaN,""
-3808.68,20,9.06403e-06,NaN,2.26601e-06,NaN,""
-3773.29,20,8.69944e-06,NaN,2.17486e-06,NaN,""
-3757.05,20,8.90884e-06,NaN,2.22721e-06,NaN,""
-3730.62,20,8.83088e-06,NaN,2.20772e-06,NaN,""
-3696.78,20,9.37945e-06,NaN,2.34486e-06,NaN,""
-3671.94,20,9.91915e-06,NaN,2.47979e-06,NaN,""
-3637.82,20,9.46619e-06,NaN,2.36655e-06,NaN,""
-3603.05,20,1.01272e-05,NaN,2.5318e-06,NaN,""
2454.24,20,NaN,NaN,NaN,NaN,"Reaction start. Measuring position. Signal correct"
2454.95,20,3.33279e-05,2.34619e-05,8.33197e-06,5.86547e-06,""
2692.95,20,0.00179408,0.0094652,0.000448521,0.0023663,""
2703.95,20,0.0291502,0.151039,0.00728754,0.0377599,""
2717.82,20,0.0899467,0.967261,0.0224867,0.241815,""
2728.95,20,0.138123,2.24185,0.0345306,0.560463,""
2739.95,20,0.177649,3.9866,0.0444123,0.99665,""
2750.95,20,0.208368,6.11702,0.0520921,1.52926,""
2763.95,20,0.233818,9.00171,0.0584545,2.25043,""
2774.95,20,0.247882,11.6566,0.0619704,2.91414,""
2785.95,20,0.256501,14.4344,0.0641254,3.60861,""
2797.95,20,0.260936,17.5426,0.065234,4.38565,""
2809.95,20,0.261548,20.6802,0.0653871,5.17004,""
2822.95,20,0.259088,24.0667,0.0647721,6.01669,""
2838.07,20,0.253394,27.9454,0.0633485,6.98635,""
2854.82,20,0.24486,32.121,0.0612149,8.03024,""
2874.95,20,0.232769,36.9297,0.0581923,9.23243,""
2901.39,20,0.215599,42.858,0.0538997,10.7145,""
2932.39,20,0.195415,49.2273,0.0488536,12.3068,""
2953.45,20,0.182187,53.2029,0.0455468,13.3007,""
2985.39,20,0.163421,58.718,0.0408552,14.6795,""
3006.95,20,0.151642,62.1137,0.0379105,15.5284,""
3028.39,20,0.140749,65.2464,0.0351873,16.3116,""
3048.95,20,0.130937,68.0386,0.0327342,17.0096,""
3070.39,20,0.121438,70.7424,0.0303594,17.6856,""
3090.95,20,0.112958,73.1514,0.0282395,18.2879,""
3116.51,20,0.103271,75.9133,0.0258177,18.9783,""
3137.95,20,0.0957782,78.0459,0.0239446,19.5115,""
3157.82,20,0.0893561,79.8849,0.022339,19.9712,""
3179.95,20,0.0827112,81.7874,0.0206778,20.4469,""
3209.45,20,0.0746827,84.1068,0.0186707,21.0267,""
3238.4,20,0.0676188,86.1651,0.0169047,21.5413,""
3269.17,20,0.0608675,88.1399,0.0152169,22.035,""
3310.45,20,0.0529714,90.4855,0.0132429,22.6214,""
3346.7,20,0.0469631,92.2944,0.0117408,23.0736,""
3376.45,20,0.0425975,93.6256,0.0106494,23.4064,""
3412.59,20,0.0379111,95.0785,0.00947777,23.7696,""
3453.95,20,0.0332604,96.548,0.0083151,24.137,""
3491.14,20,0.0296425,97.716,0.00741062,24.429,""
3531.45,20,0.0262447,98.8407,0.00656119,24.7102,""
3573.45,20,0.0231902,99.8773,0.00579756,24.9693,""
3620.62,20,0.020276,100.901,0.00506899,25.2251,""
3677.64,20,0.0173609,101.971,0.00434021,25.4927,""
3740.86,20,0.0147504,102.983,0.00368761,25.7457,""
3799.97,20,0.0127902,103.795,0.00319756,25.9487,""
3858.37,20,0.0112142,104.494,0.00280356,26.1235,""
3934.62,20,0.00958261,105.284,0.00239565,26.3211,""
4013.99,20,0.00827874,105.991,0.00206969,26.4977,""
4098.1,20,0.00722104,106.641,0.00180526,26.6602,""
4198.14,20,0.00628326,107.314,0.00157081,26.8285,""
4299.14,20,0.00558551,107.912,0.00139638,26.9779,""
4424.41,20,0.00495734,108.57,0.00123934,27.1424,""
4596.87,20,0.00436174,109.37,0.00109043,27.3425,""
4786.46,20,0.00392182,110.153,0.000980454,27.5381,""
5035.15,20,0.00353411,111.077,0.000883527,27.7692,""
5315.23,20,0.00322693,112.021,0.000806733,28.0053,""
5670.86,20,0.0029383,113.115,0.000734575,28.2788,""
5938.39,20,0.00277248,113.879,0.00069312,28.4698,""
6244.31,20,0.00259396,114.699,0.000648491,28.6748,""
6521.3,20,0.00246281,115.399,0.000615701,28.8498,""
6810.77,20,0.00234532,116.095,0.000586329,29.0236,""
7519.28,20,0.00210782,117.669,0.000526954,29.4172,""
8002.16,20,0.00198093,118.655,0.000495233,29.6638,""
8450.7,20,0.00188421,119.521,0.000471053,29.8803,""
8796.29,20,0.00182202,120.161,0.000455506,30.0403,""
9256.95,20,0.00175658,120.985,0.000439144,30.2462,""
9582.45,20,0.00171834,121.55,0.000429585,30.3876,""
9913.5,20,0.00168667,122.114,0.000421667,30.5284,""
10205.9,20,0.00166355,122.603,0.000415888,30.6509,""
10424.7,20,0.00164699,122.966,0.000411749,30.7414,""
10647.8,20,0.00163717,123.332,0.000409292,30.8329,""
11054.4,20,0.00165305,124,0.000413262,30.9999,""
11318.3,20,0.00169892,124.44,0.00042473,31.1101,""
11544.4,20,0.00172413,124.829,0.000431033,31.2071,""
12011.1,20,0.00175952,125.64,0.000439879,31.41,""
12459.1,20,0.00181491,126.44,0.000453727,31.6101,""
12684.3,20,0.00184432,126.852,0.000461081,31.7131,""
12995.3,20,0.00188701,127.432,0.000471753,31.8581,""
13278.3,20,0.00192527,127.972,0.000481318,31.9929,""
13802.2,20,0.00199706,128.999,0.000499266,32.2498,""
14110.8,20,0.00203866,129.622,0.000509664,32.4055,""
14784.4,20,0.00213145,131.026,0.000532864,32.7565,""
15156.2,20,0.00218414,131.828,0.000546034,32.9571,""
15348.8,20,0.0022116,132.252,0.000552901,33.0629,""
15597.1,20,0.00224899,132.805,0.000562247,33.2013,""
15957.2,20,0.00230309,133.625,0.000575772,33.4062,""
16277.3,20,0.00235343,134.37,0.000588358,33.5925,""
16684.4,20,0.00242075,135.342,0.000605187,33.8355,""
16922.3,20,0.00246104,135.923,0.00061526,33.9807,""
17234.7,20,0.00251678,136.7,0.000629194,34.1751,""
17525.4,20,0.00256876,137.439,0.00064219,34.3598,""
17872,20,0.00263379,138.341,0.000658449,34.5852,""
18198,20,0.00269578,139.209,0.000673945,34.8024,""
18630.2,20,0.00278252,140.393,0.000695629,35.0984,""
18965.4,20,0.00285081,141.338,0.000712702,35.3344,""
19215.9,20,0.00290393,142.058,0.000725983,35.5146,""
19551.3,20,0.00297624,143.044,0.000744059,35.7611,""
19769.8,20,0.00302461,143.7,0.000756151,35.925,""
19973.3,20,0.00306893,144.32,0.000767232,36.08,""
20321.2,20,0.00314843,145.401,0.000787107,36.3503,""
20657.4,20,0.00322716,146.473,0.000806789,36.6183,""
20957,20,0.00329921,147.451,0.000824802,36.8627,""
21533.5,20,0.0034418,149.394,0.000860449,37.3484,""
21817.4,20,0.00351448,150.381,0.000878619,37.5953,""
22105.4,20,0.00358757,151.404,0.000896892,37.8509,""
22594.7,20,0.00371603,153.191,0.000929007,38.2976,""
23054.5,20,0.00383763,154.927,0.000959407,38.7317,""
23390,20,0.0039292,156.23,0.000982299,39.0575,""
23849.1,20,0.00405572,158.063,0.00101393,39.5157,""
24239.9,20,0.00416506,159.669,0.00104127,39.9173,""
24451.1,20,0.00422482,160.555,0.0010562,40.1387,""
24982.2,20,0.00437757,162.839,0.00109439,40.7098,""
25206.8,20,0.00444155,163.829,0.00111039,40.9574,""
25538.2,20,0.00453922,165.318,0.0011348,41.3294,""
25827.5,20,0.00462227,166.642,0.00115557,41.6606,""
26113.4,20,0.00470602,167.976,0.0011765,41.9941,""
26504.7,20,0.00482143,169.84,0.00120536,42.46,""
26732.5,20,0.0048895,170.946,0.00122237,42.7365,""
27048.8,20,0.00498269,172.507,0.00124567,43.1269,""
27475.1,20,0.00511016,174.658,0.00127754,43.6646,""
28112.7,20,0.00529846,177.977,0.00132462,44.4942,""
28428.9,20,0.00539216,179.667,0.00134804,44.9167,""
28898.7,20,0.00553073,182.233,0.00138268,45.5582,""
29289.3,20,0.00564662,184.416,0.00141165,46.1039,""
29681.5,20,0.00576165,186.653,0.00144041,46.6632,""
29961.1,20,0.00584404,188.275,0.00146101,47.0688,""
30517.2,20,0.00600457,191.57,0.00150114,47.8924,""
30832.5,20,0.0060949,193.477,0.00152373,48.3692,""
31181.5,20,0.00619328,195.621,0.00154832,48.9053,""
31400.5,20,0.00625534,196.984,0.00156384,49.2461,""
31861,20,0.00638379,199.895,0.00159595,49.9737,""
32222.9,20,0.0064838,202.224,0.00162095,50.5559,""
32565.8,20,0.00657696,204.463,0.00164424,51.1158,""
33073.7,20,0.00671222,207.838,0.00167805,51.9595,""
33430.3,20,0.00680498,210.248,0.00170125,52.562,""
33728.9,20,0.00688288,212.292,0.00172072,53.0729,""
34136.4,20,0.00698462,215.117,0.00174615,53.7794,""
34501,20,0.00707286,217.68,0.00176821,54.42,""
35181.1,20,0.00723364,222.545,0.00180841,55.6363,""
35529.4,20,0.00731275,225.078,0.00182819,56.2696,""
35794.8,20,0.00737286,227.027,0.00184322,56.7568,""
36195.8,20,0.00746086,230.001,0.00186522,57.5002,""
36469.8,20,0.00751857,232.054,0.00187964,58.0134,""
36913.3,20,0.00761096,235.409,0.00190274,58.8522,""
37231.1,20,0.00767378,237.837,0.00191844,59.4592,""
37652.4,20,0.00775351,241.087,0.00193838,60.2718,""
37942.4,20,0.00780774,243.343,0.00195194,60.8358,""
38542.2,20,0.0079119,248.058,0.00197797,62.0144,""
38788.6,20,0.00795299,250.013,0.00198825,62.5032,""
39114.1,20,0.00800535,252.61,0.00200134,63.1526,""
39483.8,20,0.00806242,255.58,0.00201561,63.895,""
39793.6,20,0.00810784,258.085,0.00202696,64.5212,""
40133.4,20,0.00815545,260.848,0.00203886,65.2121,""
40465.3,20,0.00820058,263.562,0.00205015,65.8905,""
40779.3,20,0.00823912,266.143,0.00205978,66.5358,""
41072.7,20,0.00827498,268.567,0.00206875,67.1416,""
41300.6,20,0.0083011,270.455,0.00207527,67.6138,""
41617,20,0.00833604,273.087,0.00208401,68.2718,""
42135.8,20,0.00838796,277.426,0.00209699,69.3564,""
42345.2,20,0.00840786,279.184,0.00210196,69.796,""
42564.9,20,0.00842706,281.033,0.00210676,70.2583,""
42987.4,20,0.00846288,284.602,0.00211572,71.1505,""
43229.2,20,0.00848038,286.65,0.00212009,71.6624,""
43636.6,20,0.00850991,290.111,0.00212748,72.5278,""
43893.9,20,0.00852588,292.303,0.00213147,73.0757,""
44164,20,0.00854238,294.608,0.00213559,73.652,""
44752.6,20,0.00857336,299.645,0.00214334,74.9112,""
45412,20,0.0086008,305.308,0.0021502,76.327,""
45646.2,20,0.00860893,307.323,0.00215223,76.8308,""
45941.4,20,0.00861741,309.866,0.00215435,77.4666,""
46342.6,20,0.00862724,313.325,0.00215681,78.3313,""
46827.3,20,0.00863595,317.509,0.00215899,79.3774,""
47163,20,0.00863966,320.409,0.00215992,80.1022,""
47647.1,20,0.00864321,324.592,0.0021608,81.148,""
48001.1,20,0.00864356,327.652,0.00216089,81.9129,""
48682,20,0.00863853,333.536,0.00215963,83.384,""
49258.3,20,0.00863118,338.512,0.00215779,84.6281,""
49673.8,20,0.00862422,342.098,0.00215605,85.5244,""
50052.4,20,0.00861523,345.361,0.00215381,86.3403,""
50452.5,20,0.00860599,348.806,0.0021515,87.2015,""
50730.8,20,0.0085993,351.201,0.00214982,87.8002,""
51153.4,20,0.00858765,354.832,0.00214691,88.7081,""
51410.3,20,0.0085817,357.038,0.00214542,89.2594,""
51753.3,20,0.00857353,359.979,0.00214338,89.9947,""
52113.7,20,0.00856629,363.068,0.00214157,90.767,""
52707.1,20,0.00855769,368.148,0.00213942,92.0371,""
53065.4,20,0.008557,371.214,0.00213925,92.8036,""
53399.6,20,0.00855975,374.074,0.00213994,93.5185,""
53792.2,20,0.00856862,377.436,0.00214215,94.3591,""
54296.4,20,0.00858244,381.76,0.00214561,95.44,""
54575.5,20,0.00858951,384.156,0.00214738,96.039,""
54954.2,20,0.00859803,387.411,0.00214951,96.8527,""
55245.5,20,0.00860186,389.916,0.00215046,97.479,""
55665.9,20,0.00860425,393.533,0.00215106,98.3832,""
56004.7,20,0.00860008,396.447,0.00215002,99.1118,""
56522,20,0.00859123,400.894,0.00214781,100.223,""
56925.4,20,0.00857996,404.358,0.00214499,101.089,""
57158.4,20,0.00857409,406.356,0.00214352,101.589,""
57712.7,20,0.00855565,411.103,0.00213891,102.776,""
58116.1,20,0.00853997,414.551,0.00213499,103.638,""
58368.6,20,0.00852866,416.706,0.00213216,104.177,""
58853.1,20,0.00850292,420.833,0.00212573,105.208,""
59264.9,20,0.00847572,424.329,0.00211893,106.082,""
59717.6,20,0.00844284,428.159,0.00211071,107.04,""
60074.1,20,0.00841412,431.163,0.00210353,107.791,""
60453.4,20,0.00838122,434.349,0.0020953,108.587,""
60877.4,20,0.00834237,437.894,0.00208559,109.474,""
61272.8,20,0.00830463,441.185,0.00207616,110.296,""
61710.9,20,0.00826031,444.814,0.00206508,111.204,""
62470.2,20,0.00818249,451.057,0.00204562,112.764,""
62907.9,20,0.00813714,454.629,0.00203429,113.657,""
63353,20,0.00808941,458.24,0.00202235,114.56,""
63894.9,20,0.00803187,462.608,0.00200797,115.652,""
64337.5,20,0.00798328,466.152,0.00199582,116.538,""
64844.9,20,0.00792821,470.189,0.00198205,117.547,""
65547.7,20,0.00785049,475.733,0.00196262,118.933,""
65885.6,20,0.00781283,478.379,0.00195321,119.595,""
66592.5,20,0.00773313,483.874,0.00193328,120.969,""
67141.5,20,0.0076693,488.103,0.00191732,122.026,""
67392.4,20,0.00764045,490.023,0.00191011,122.506,""
67642.8,20,0.00761254,491.933,0.00190313,122.983,""
68023.6,20,0.00756876,494.823,0.00189219,123.706,""
68305.9,20,0.00753742,496.956,0.00188436,124.239,""
68661.3,20,0.00749821,499.628,0.00187455,124.907,""
69161.2,20,0.00744238,503.362,0.00186059,125.841,""
69444.6,20,0.0074111,505.467,0.00185277,126.367,""
69971.6,20,0.00735226,509.357,0.00183807,127.339,""
70182.8,20,0.00733015,510.908,0.00183254,127.727,""
70551.1,20,0.00728935,513.6,0.00182234,128.4,""
71194.7,20,0.00721924,518.269,0.00180481,129.567,""
71529.5,20,0.00718356,520.679,0.00179589,130.17,""
71953.5,20,0.00713605,523.716,0.00178401,130.929,""
72259,20,0.00710419,525.89,0.00177605,131.473,""
72539.9,20,0.00707378,527.882,0.00176845,131.971,""
72925.1,20,0.0070313,530.599,0.00175782,132.65,""
73173.2,20,0.00700483,532.34,0.00175121,133.085,""
73454.5,20,0.00697328,534.306,0.00174332,133.576,""
73755.6,20,0.00694081,536.401,0.0017352,134.1,""
73966.4,20,0.00691765,537.861,0.00172941,134.465,""
74257.3,20,0.00688726,539.869,0.00172181,134.967,""
74521.9,20,0.00685721,541.688,0.0017143,135.422,""
75013.1,20,0.00680438,545.043,0.00170109,136.261,""
75398,20,0.00676403,547.654,0.00169101,136.914,""
75766.8,20,0.00672563,550.142,0.00168141,137.535,""
76011.5,20,0.00669955,551.784,0.00167489,137.946,""
76262.8,20,0.00667264,553.464,0.00166816,138.366,""
76744.5,20,0.00662294,556.667,0.00165574,139.167,""
76989.6,20,0.00659786,558.287,0.00164947,139.572,""
77234.5,20,0.00657215,559.899,0.00164304,139.975,""
77539.4,20,0.00654137,561.899,0.00163534,140.475,""
77957.7,20,0.00649758,564.625,0.0016244,141.156,""
78356.2,20,0.00645714,567.207,0.00161428,141.802,""
78577.4,20,0.00643524,568.633,0.00160881,142.158,""
79022.6,20,0.00639011,571.488,0.00159753,142.872,""
79534.2,20,0.00633946,574.744,0.00158487,143.686,""
79881.2,20,0.00630616,576.938,0.00157654,144.234,""
80300.8,20,0.00626452,579.575,0.00156613,144.894,""
80744.9,20,0.00622182,582.348,0.00155546,145.587,""
81092.8,20,0.00618908,584.507,0.00154727,146.127,""
81371.7,20,0.0061621,586.229,0.00154052,146.557,""
81659.5,20,0.00613435,587.998,0.00153359,147,""
81929.5,20,0.00610877,589.651,0.00152719,147.413,""
82311.9,20,0.00607088,591.98,0.00151772,147.995,""
82582.1,20,0.00604531,593.617,0.00151133,148.404,""
83002.8,20,0.00600593,596.152,0.00150148,149.038,""
83282,20,0.00598006,597.825,0.00149502,149.456,""
83589.8,20,0.00595267,599.662,0.00148817,149.916,""
83897.2,20,0.00592527,601.488,0.00148132,150.372,""
84229.6,20,0.00589753,603.453,0.00147438,150.863,""
84622.9,20,0.00586388,605.765,0.00146597,151.441,""
84962.2,20,0.00583363,607.75,0.00145841,151.937,""
85637.3,20,0.00577455,611.668,0.00144364,152.917,""
86157.5,20,0.00572999,614.661,0.0014325,153.665,""
86505.7,20,0.00570027,616.651,0.00142507,154.163,""
86832.9,20,0.00567163,618.511,0.00141791,154.628,""
87099.5,20,0.00564842,620.021,0.0014121,155.005,""
87656.4,20,0.00560224,623.153,0.00140056,155.788,""
88003.5,20,0.00557339,625.093,0.00139335,156.273,""
88405.5,20,0.00553946,627.326,0.00138486,156.832,""
89085.9,20,0.00548422,631.076,0.00137105,157.769,""
90105.2,20,0.00540235,636.625,0.00135059,159.156,""
90464.8,20,0.00537496,638.562,0.00134374,159.641,""
90719.7,20,0.00535509,639.93,0.00133877,159.982,""
90932.1,20,0.00533926,641.065,0.00133482,160.266,""
91184.7,20,0.00531894,642.411,0.00132974,160.603,""
91569.9,20,0.00528993,644.455,0.00132248,161.114,""
91896.8,20,0.00526517,646.18,0.00131629,161.545,""
92254.1,20,0.00523744,648.057,0.00130936,162.014,""
92778.4,20,0.00519823,650.792,0.00129956,162.698,""
93282,20,0.00516043,653.4,0.00129011,163.35,""
93817,20,0.00512305,656.151,0.00128076,164.038,""
94087.7,20,0.0051033,657.535,0.00127583,164.384,""
94404,20,0.00508206,659.146,0.00127052,164.787,""
94842.5,20,0.00505169,661.368,0.00126292,165.342,""
95109.6,20,0.0050334,662.715,0.00125835,165.679,""
95393.3,20,0.0050143,664.14,0.00125357,166.035,""
95719.7,20,0.00499221,665.773,0.00124805,166.443,""
96029.6,20,0.00497273,667.317,0.00124318,166.829,""
96493.2,20,0.0049414,669.615,0.00123535,167.404,""
96692.3,20,0.00492836,670.598,0.00123209,167.649,""
97013.6,20,0.00490721,672.178,0.0012268,168.044,""
97311.7,20,0.00488878,673.638,0.0012222,168.409,""
97687.5,20,0.00486436,675.47,0.00121609,168.868,""
97934.4,20,0.00484823,676.669,0.00121206,169.167,""
98431.4,20,0.00481568,679.071,0.00120392,169.768,""
98675.5,20,0.00480072,680.245,0.00120018,170.061,""
98947.3,20,0.00478321,681.547,0.0011958,170.387,""
99202,20,0.00476751,682.763,0.00119188,170.691,""
99531.8,20,0.00474661,684.333,0.00118665,171.083,""
99813.2,20,0.00472884,685.666,0.00118221,171.416,""
100229,20,0.00470263,687.626,0.00117566,171.906,""
100449,20,0.00468976,688.662,0.00117244,172.165,""
100728,20,0.00467189,689.967,0.00116797,172.492,""
101118,20,0.00464793,691.782,0.00116198,172.946,""
101410,20,0.00463097,693.137,0.00115774,173.284,""
101836,20,0.00460583,695.107,0.00115146,173.777,""
102091,20,0.00459084,696.279,0.00114771,174.07,""
102402,20,0.00457424,697.703,0.00114356,174.426,""
102727,20,0.00455701,699.188,0.00113925,174.797,""
103056,20,0.00453871,700.683,0.00113468,175.171,""
103398,20,0.00451943,702.231,0.00112986,175.558,""
103961,20,0.00448812,704.77,0.00112203,176.192,""
104335,20,0.00446727,706.443,0.00111682,176.611,""
104523,20,0.00445562,707.281,0.0011139,176.82,""
104803,20,0.00444041,708.529,0.0011101,177.132,""
105006,20,0.00442945,709.427,0.00110736,177.357,""
105154,20,0.00442015,710.082,0.00110504,177.52,""
105580,20,0.00439685,711.958,0.00109921,177.989,""
106041,20,0.00437036,713.98,0.00109259,178.495,""
106208,20,0.004361,714.71,0.00109025,178.677,""
106629,20,0.00433752,716.541,0.00108438,179.135,""
106838,20,0.00432538,717.445,0.00108134,179.361,""
107148,20,0.00430944,718.786,0.00107736,179.696,""
107377,20,0.00429604,719.768,0.00107401,179.942,""
107604,20,0.0042843,720.746,0.00107107,180.186,""
107858,20,0.0042711,721.83,0.00106778,180.457,""
108115,20,0.00425728,722.927,0.00106432,180.732,""
108321,20,0.00424642,723.802,0.0010616,180.95,""
108561,20,0.00423438,724.821,0.00105859,181.205,""
108867,20,0.00421942,726.115,0.00105486,181.529,""
109253,20,0.00419869,727.737,0.00104967,181.934,""
109516,20,0.00418548,728.842,0.00104637,182.211,""
109904,20,0.00416596,730.461,0.00104149,182.615,""
110261,20,0.00414857,731.945,0.00103714,182.986,""
110502,20,0.00413545,732.943,0.00103386,183.236,""
110721,20,0.00412524,733.849,0.00103131,183.462,""
110963,20,0.00411295,734.846,0.00102824,183.711,""
111275,20,0.0040979,736.125,0.00102447,184.031,""
111485,20,0.00408754,736.986,0.00102189,184.247,""
111837,20,0.00407071,738.42,0.00101768,184.605,""
112244,20,0.00405085,740.073,0.00101271,185.018,""
112404,20,0.00404305,740.723,0.00101076,185.181,""
112596,20,0.00403345,741.497,0.00100836,185.374,""
112997,20,0.00401406,743.111,0.00100352,185.778,""
113387,20,0.0039955,744.671,0.000998874,186.168,""
113685,20,0.00398124,745.859,0.00099531,186.465,""
113908,20,0.00397124,746.747,0.000992809,186.687,""
114197,20,0.00395753,747.894,0.000989383,186.974,""
114456,20,0.00394579,748.916,0.000986448,187.229,""
115235,20,0.00391035,751.976,0.000977587,187.994,""
115655,20,0.00389229,753.614,0.000973072,188.403,""
116169,20,0.00386994,755.61,0.000967485,188.903,""
116517,20,0.00385594,756.955,0.000963984,189.239,""
116844,20,0.00384209,758.214,0.000960523,189.554,""
117111,20,0.00383079,759.239,0.000957699,189.81,""
117524,20,0.0038133,760.815,0.000953326,190.204,""
117930,20,0.00379679,762.362,0.000949198,190.591,""
118216,20,0.00378472,763.443,0.000946181,190.861,""
118694,20,0.00376377,765.249,0.000940942,191.312,""
119244,20,0.00374108,767.314,0.00093527,191.828,""
119608,20,0.00372688,768.672,0.00093172,192.168,""
119840,20,0.00371685,769.537,0.000929212,192.384,""
120221,20,0.00370151,770.949,0.000925377,192.737,""
120639,20,0.00368525,772.494,0.000921312,193.123,""
120932,20,0.00367341,773.572,0.000918352,193.393,""
121407,20,0.00365458,775.311,0.000913645,193.828,""
122035,20,0.00363049,777.597,0.000907621,194.399,""
122255,20,0.00362187,778.395,0.000905468,194.599,""
122599,20,0.00360859,779.64,0.000902148,194.91,""
122840,20,0.00359977,780.51,0.000899942,195.127,""
123082,20,0.00359165,781.377,0.000897914,195.344,""
123405,20,0.00357848,782.537,0.000894621,195.634,""
123818,20,0.00356346,784.011,0.000890865,196.003,""
124260,20,0.00354671,785.583,0.000886677,196.396,""
124814,20,0.00352528,787.541,0.000881319,196.885,""
125186,20,0.00351157,788.85,0.000877894,197.212,""
125466,20,0.00350098,789.83,0.000875244,197.458,""
125809,20,0.00348876,791.03,0.000872189,197.758,""
126291,20,0.00347245,792.709,0.000868113,198.177,""
126821,20,0.00345291,794.544,0.000863228,198.636,""
127179,20,0.00344093,795.777,0.000860234,198.944,""
127657,20,0.00342473,797.42,0.000856184,199.355,""
127997,20,0.00341224,798.581,0.00085306,199.645,""
128400,20,0.00339825,799.953,0.000849562,199.988,""
128711,20,0.00338791,801.009,0.000846978,200.252,""
129280,20,0.00336921,802.931,0.000842303,200.733,""
129986,20,0.00334456,805.302,0.000836139,201.326,""
130322,20,0.00333455,806.423,0.000833637,201.606,""
130681,20,0.00332198,807.619,0.000830496,201.905,""
131400,20,0.00329967,810,0.000824917,202.5,""
131866,20,0.00328476,811.531,0.00082119,202.883,""
132360,20,0.00326919,813.152,0.000817297,203.288,""
132821,20,0.00325477,814.656,0.000813692,203.664,""
133174,20,0.00324392,815.803,0.000810979,203.951,""
133559,20,0.0032315,817.048,0.000807875,204.262,""
134254,20,0.00321146,819.287,0.000802864,204.822,""
134553,20,0.00320226,820.246,0.000800566,205.062,""
134764,20,0.00319611,820.922,0.000799028,205.23,""
135160,20,0.0031841,822.185,0.000796024,205.546,""
135434,20,0.00317704,823.055,0.00079426,205.764,""
135777,20,0.00316651,824.143,0.000791628,206.036,""
136131,20,0.00315726,825.262,0.000789314,206.316,""
136311,20,0.00315112,825.832,0.00078778,206.458,""
136675,20,0.00314106,826.977,0.000785266,206.744,""
136985,20,0.00313212,827.949,0.000783031,206.987,""
137591,20,0.00311512,829.841,0.00077878,207.46,""
138287,20,0.00309638,832.002,0.000774094,208.001,""
138737,20,0.003082,833.392,0.0007705,208.348,""
139139,20,0.00307052,834.629,0.000767629,208.657,""
139454,20,0.00306178,835.595,0.000765444,208.899,""
139768,20,0.00305217,836.555,0.000763043,209.139,""
140176,20,0.00304076,837.801,0.000760189,209.45,""
140451,20,0.00303314,838.635,0.000758284,209.659,""
140818,20,0.00302377,839.745,0.000755942,209.936,""
141132,20,0.00301516,840.692,0.000753789,210.173,""
141481,20,0.00300496,841.745,0.000751239,210.436,""
141888,20,0.00299289,842.964,0.000748222,210.741,""
142194,20,0.00298492,843.88,0.000746231,210.97,""
142652,20,0.0029722,845.243,0.000743051,211.311,""
142989,20,0.00296377,846.244,0.000740942,211.561,""
143321,20,0.00295507,847.225,0.000738768,211.806,""
143756,20,0.00294204,848.51,0.00073551,212.127,""
144246,20,0.00292815,849.948,0.000732038,212.487,""
144714,20,0.00291505,851.313,0.000728762,212.828,""
145105,20,0.00290505,852.454,0.000726263,213.113,""
145426,20,0.00289749,853.384,0.000724373,213.346,""
145710,20,0.00288953,854.206,0.000722382,213.552,""
146193,20,0.00287663,855.599,0.000719156,213.9,""
146567,20,0.00286688,856.673,0.00071672,214.168,""
146921,20,0.00285777,857.685,0.000714442,214.421,""
147371,20,0.00284742,858.968,0.000711856,214.742,""
147628,20,0.00284014,859.701,0.000710035,214.925,""
147892,20,0.00283475,860.449,0.000708687,215.112,""
148226,20,0.00282593,861.394,0.000706483,215.349,""
148574,20,0.0028178,862.376,0.000704451,215.594,""
148952,20,0.00280781,863.439,0.000701953,215.86,""
149199,20,0.00280234,864.133,0.000700585,216.033,""
149435,20,0.00279617,864.793,0.000699041,216.198,""
149672,20,0.002791,865.456,0.000697751,216.364,""
150088,20,0.0027808,866.615,0.0006952,216.654,""
150417,20,0.00277366,867.528,0.000693416,216.882,""
150775,20,0.00276504,868.52,0.000691261,217.13,""
151023,20,0.00275922,869.204,0.000689805,217.301,""
151442,20,0.00275033,870.36,0.000687582,217.59,""
151788,20,0.00274197,871.307,0.000685493,217.827,""
152220,20,0.00273233,872.491,0.000683083,218.123,""
152613,20,0.00272371,873.565,0.000680928,218.391,""
152947,20,0.00271541,874.472,0.000678851,218.618,""
153227,20,0.00270944,875.231,0.00067736,218.808,""
153558,20,0.00270071,876.125,0.000675177,219.031,""
153890,20,0.00269297,877.023,0.000673242,219.256,""
154183,20,0.0026858,877.811,0.00067145,219.453,""
154629,20,0.00267452,879.004,0.000668629,219.751,""
154935,20,0.00266751,879.822,0.000666877,219.955,""
155225,20,0.00266087,880.596,0.000665218,220.149,""
155683,20,0.00264985,881.813,0.000662462,220.453,""
156015,20,0.00264191,882.69,0.000660478,220.673,""
156405,20,0.00263247,883.718,0.000658117,220.93,""
156837,20,0.00262251,884.854,0.000655629,221.213,""
157171,20,0.00261384,885.728,0.000653461,221.432,""
157452,20,0.00260834,886.463,0.000652085,221.616,""
157910,20,0.0025964,887.653,0.000649099,221.913,""
158243,20,0.00258891,888.516,0.000647229,222.129,""
158508,20,0.00258266,889.201,0.000645665,222.3,""
158925,20,0.002573,890.278,0.000643251,222.57,""
159310,20,0.00256455,891.267,0.000641137,222.817,""
159669,20,0.00255542,892.185,0.000638854,223.046,""
160114,20,0.00254455,893.319,0.000636138,223.33,""
160509,20,0.00253489,894.323,0.000633722,223.581,""
160849,20,0.00252616,895.184,0.000631541,223.796,""
161231,20,0.00251697,896.148,0.000629243,224.037,""
161443,20,0.00251323,896.681,0.000628308,224.17,""
161644,20,0.00250789,897.186,0.000626973,224.296,""
161892,20,0.00250259,897.807,0.000625649,224.452,""
162175,20,0.00249659,898.513,0.000624147,224.628,""
162761,20,0.00248311,899.972,0.000620778,224.993,""
163173,20,0.0024745,900.994,0.000618626,225.248,""
163472,20,0.00246838,901.734,0.000617095,225.433,""
163939,20,0.00245879,902.883,0.000614697,225.721,""
164289,20,0.00245092,903.742,0.000612729,225.935,""
164562,20,0.00244427,904.411,0.000611068,226.103,""
164822,20,0.00243937,905.045,0.000609843,226.261,""
165601,20,0.00242177,906.939,0.000605443,226.735,""
166041,20,0.00241148,908.004,0.000602869,227.001,""
166542,20,0.0024004,909.209,0.000600101,227.302,""
167100,20,0.00238785,910.544,0.000596962,227.636,""
167452,20,0.00238102,911.384,0.000595255,227.846,""
167837,20,0.00237227,912.299,0.000593066,228.075,""
168476,20,0.00235843,913.809,0.000589607,228.452,""
168769,20,0.00235139,914.5,0.000587847,228.625,""
169144,20,0.00234317,915.38,0.000585793,228.845,""
169511,20,0.00233658,916.239,0.000584144,229.06,""
169884,20,0.00232767,917.108,0.000581918,229.277,""
170302,20,0.0023194,918.081,0.000579849,229.52,""
170849,20,0.00230655,919.347,0.000576638,229.837,""
171119,20,0.00230161,919.968,0.000575401,229.992,""
171424,20,0.00229455,920.668,0.000573637,230.167,""
171804,20,0.00228588,921.538,0.000571471,230.384,""
172188,20,0.00227811,922.414,0.000569527,230.604,""
172498,20,0.0022712,923.119,0.000567799,230.78,""
173057,20,0.00226179,924.386,0.000565448,231.097,""
173541,20,0.00225319,925.48,0.000563298,231.37,""
173886,20,0.00224744,926.256,0.00056186,231.564,""
174154,20,0.00224236,926.859,0.000560589,231.715,""
174518,20,0.00223538,927.673,0.000558846,231.918,""
174862,20,0.00222918,928.441,0.000557296,232.11,""
175283,20,0.00221987,929.376,0.000554966,232.344,""
175769,20,0.00221105,930.454,0.000552761,232.613,""
176279,20,0.00220062,931.578,0.000550156,232.894,""
176813,20,0.00219047,932.752,0.000547618,233.188,""
177424,20,0.00218041,934.087,0.000545103,233.522,""
177706,20,0.00217513,934.7,0.000543782,233.675,""
178194,20,0.00216526,935.758,0.000541316,233.94,""
178585,20,0.00215792,936.605,0.00053948,234.151,""
178850,20,0.00215339,937.176,0.000538348,234.294,""
179476,20,0.00214239,938.519,0.000535597,234.63,""
180157,20,0.00212922,939.975,0.000532306,234.994,""
180703,20,0.00211921,941.133,0.000529802,235.283,""
181113,20,0.00211192,942.002,0.00052798,235.5,""
181528,20,0.002105,942.875,0.000526251,235.719,""
182311,20,0.00209061,944.519,0.000522654,236.13,""
182706,20,0.00208267,945.344,0.000520666,236.336,""
182991,20,0.00207672,945.937,0.000519181,236.484,""
183436,20,0.00206619,946.858,0.000516548,236.715,""
183912,20,0.00205658,947.84,0.000514145,236.96,""
184246,20,0.00205072,948.525,0.000512679,237.131,""
184823,20,0.00204098,949.706,0.000510245,237.427,""
185216,20,0.00203337,950.506,0.000508342,237.626,""
185453,20,0.00202966,950.987,0.000507414,237.747,""
185761,20,0.00202318,951.612,0.000505795,237.903,""
186489,20,0.00201019,953.08,0.000502547,238.27,""
187252,20,0.00199531,954.608,0.000498826,238.652,""
187529,20,0.00199087,955.16,0.000497716,238.79,""
187802,20,0.00198504,955.704,0.000496259,238.926,""
188464,20,0.00197247,957.013,0.000493118,239.253,""
188788,20,0.00196701,957.651,0.000491752,239.413,""
189039,20,0.00196266,958.146,0.000490666,239.536,""
189315,20,0.00195904,958.686,0.000489761,239.671,""
190010,20,0.00195056,960.044,0.000487639,240.011,""
190431,20,0.00194495,960.864,0.000486238,240.216,""
190713,20,0.00194032,961.413,0.000485079,240.353,""
190977,20,0.00193714,961.924,0.000484286,240.481,""
191419,20,0.0019302,962.779,0.00048255,240.695,""
191900,20,0.00192221,963.705,0.000480554,240.926,""
192246,20,0.00191635,964.369,0.000479087,241.092,""
192660,20,0.00191105,965.161,0.000477764,241.29,""
193340,20,0.0019003,966.458,0.000475074,241.615,""
193975,20,0.00189043,967.66,0.000472608,241.915,""
194629,20,0.00187855,968.893,0.000469638,242.223,""
194872,20,0.00187497,969.35,0.000468742,242.337,""
195327,20,0.00186825,970.2,0.000467063,242.55,""
195816,20,0.0018594,971.113,0.000464851,242.778,""
196111,20,0.00185493,971.659,0.000463733,242.915,""
196624,20,0.00184687,972.61,0.000461718,243.152,""
197322,20,0.00183497,973.895,0.000458742,243.474,""
197667,20,0.00183039,974.526,0.000457597,243.632,""
198128,20,0.00182268,975.369,0.000455671,243.842,""
198409,20,0.001817,975.88,0.00045425,243.97,""
198780,20,0.00181202,976.554,0.000453004,244.138,""
199213,20,0.00180456,977.336,0.000451141,244.334,""
199804,20,0.00179537,978.4,0.000448842,244.6,""
200190,20,0.00178928,979.092,0.000447321,244.773,""
200550,20,0.00178455,979.736,0.000446139,244.934,""
200961,20,0.00177809,980.467,0.000444523,245.117,""
201479,20,0.00177084,981.387,0.000442709,245.347,""
201861,20,0.00176552,982.061,0.000441379,245.515,""
202383,20,0.00175876,982.982,0.00043969,245.745,""
202758,20,0.00175351,983.64,0.000438378,245.91,""
203050,20,0.00174906,984.152,0.000437264,246.038,""
203468,20,0.00174419,984.881,0.000436047,246.22,""
204101,20,0.00173741,985.983,0.000434353,246.496,""
204646,20,0.00173001,986.929,0.000432502,246.732,""
204993,20,0.00172627,987.528,0.000431567,246.882,""
205286,20,0.00172205,988.033,0.000430511,247.008,""
205600,20,0.00171828,988.573,0.00042957,247.143,""
206033,20,0.00171143,989.316,0.000427859,247.329,""
206820,20,0.00170136,990.658,0.000425339,247.665,""
207590,20,0.00169048,991.963,0.00042262,247.991,""
208030,20,0.00168552,992.707,0.00042138,248.177,""
208463,20,0.00167933,993.436,0.000419833,248.359,""
208963,20,0.00167326,994.273,0.000418316,248.568,""
209698,20,0.00166353,995.499,0.000415882,248.875,""
210053,20,0.00165892,996.089,0.00041473,249.022,""
210383,20,0.00165569,996.636,0.000413922,249.159,""
210903,20,0.00165018,997.495,0.000412546,249.374,""
211422,20,0.00164501,998.351,0.000411252,249.588,""
211667,20,0.00164237,998.754,0.000410592,249.688,""
212227,20,0.00163564,999.671,0.000408909,249.918,""
212736,20,0.00162925,1000.5,0.000407312,250.125,""
213113,20,0.00162402,1001.11,0.000406005,250.279,""
213720,20,0.00161742,1002.1,0.000404355,250.525,""
213983,20,0.00161409,1002.52,0.000403524,250.631,""
214559,20,0.00160811,1003.45,0.000402026,250.863,""
215064,20,0.00160153,1004.26,0.000400382,251.066,""
215494,20,0.00159722,1004.95,0.000399305,251.237,""
215893,20,0.00159297,1005.59,0.000398242,251.397,""
216490,20,0.00158613,1006.54,0.000396532,251.634,""
216876,20,0.00158183,1007.15,0.000395458,251.787,""
217328,20,0.00157607,1007.86,0.000394018,251.965,""
218024,20,0.00156865,1008.95,0.000392162,252.239,""
218540,20,0.0015643,1009.76,0.000391075,252.441,""
218883,20,0.00156253,1010.3,0.000390633,252.575,""
219303,20,0.00155647,1010.95,0.000389118,252.738,""
219564,20,0.00155454,1011.36,0.000388636,252.84,""
220494,20,0.00154572,1012.8,0.00038643,253.201,""
221248,20,0.00153888,1013.96,0.00038472,253.491,""
221477,20,0.0015367,1014.32,0.000384176,253.579,""
222119,20,0.00153176,1015.3,0.000382941,253.825,""
222704,20,0.00152568,1016.2,0.000381419,254.049,""
223231,20,0.00152132,1017,0.00038033,254.25,""
223815,20,0.00151435,1017.88,0.000378588,254.471,""
224135,20,0.00151073,1018.37,0.000377682,254.592,""
224463,20,0.00150836,1018.87,0.000377089,254.716,""
224992,20,0.00150471,1019.66,0.000376178,254.915,""
225402,20,0.00150061,1020.28,0.000375153,255.07,""
225822,20,0.00149666,1020.91,0.000374165,255.227,""
226475,20,0.00148991,1021.88,0.000372477,255.471,""
226952,20,0.00148693,1022.59,0.000371731,255.648,""
227263,20,0.0014832,1023.05,0.000370801,255.763,""
227489,20,0.00148215,1023.39,0.000370538,255.847,""
227847,20,0.00147969,1023.92,0.000369922,255.98,""
228191,20,0.00147721,1024.43,0.000369304,256.107,""
228578,20,0.00147395,1025,0.000368488,256.25,""
228948,20,0.00147102,1025.54,0.000367755,256.386,""
229297,20,0.00146791,1026.06,0.000366977,256.514,""
229664,20,0.00146562,1026.59,0.000366405,256.649,""
230015,20,0.00146282,1027.11,0.000365706,256.777,""
230244,20,0.00146026,1027.44,0.000365064,256.86,""
230589,20,0.00145769,1027.95,0.000364423,256.987,""
231205,20,0.00145235,1028.84,0.000363089,257.21,""
231405,20,0.00145018,1029.13,0.000362546,257.283,""
231728,20,0.00144725,1029.6,0.000361813,257.4,""
232319,20,0.00144268,1030.46,0.000360671,257.614,""
232850,20,0.00143751,1031.22,0.000359378,257.805,""
233403,20,0.00143393,1032.01,0.000358482,258.003,""
233967,20,0.00142964,1032.82,0.000357409,258.205,""
234261,20,0.00142698,1033.24,0.000356744,258.31,""
234734,20,0.00142441,1033.91,0.000356103,258.479,""
235454,20,0.00141861,1034.94,0.000354654,258.735,""
235708,20,0.00141558,1035.3,0.000353896,258.825,""
236098,20,0.00141357,1035.85,0.000353392,258.962,""
236405,20,0.00141004,1036.28,0.000352511,259.071,""
236794,20,0.00140707,1036.83,0.000351768,259.208,""
237126,20,0.0014049,1037.3,0.000351225,259.325,""
237462,20,0.0014017,1037.77,0.000350426,259.442,""
237893,20,0.0013992,1038.37,0.000349801,259.593,""
238384,20,0.00139578,1039.06,0.000348945,259.765,""
238853,20,0.00139266,1039.71,0.000348165,259.928,""
239167,20,0.00139017,1040.15,0.000347543,260.038,""
239475,20,0.00138859,1040.58,0.000347147,260.145,""
239773,20,0.00138531,1040.99,0.000346328,260.248,""
240337,20,0.00138177,1041.77,0.000345442,260.443,""
241092,20,0.00137524,1042.81,0.000343811,260.703,""
241867,20,0.00137046,1043.88,0.000342616,260.969,""
242275,20,0.00136762,1044.43,0.000341906,261.109,""
242917,20,0.0013635,1045.31,0.000340876,261.328,""
243471,20,0.0013605,1046.07,0.000340124,261.516,""
244064,20,0.00135626,1046.87,0.000339065,261.718,""
244389,20,0.00135425,1047.31,0.000338562,261.828,""
244898,20,0.00135123,1048,0.000337807,262,""
245356,20,0.00134797,1048.62,0.000336993,262.155,""
245988,20,0.00134442,1049.47,0.000336105,262.367,""
246519,20,0.00134009,1050.18,0.000335023,262.545,""
246978,20,0.00133813,1050.8,0.000334533,262.699,""
247400,20,0.00133581,1051.36,0.000333954,262.84,""
247886,20,0.00133518,1052.01,0.000333794,263.002,""
248253,20,0.00133421,1052.5,0.000333552,263.125,""
248540,20,0.00133199,1052.88,0.000332998,263.22,""
248956,20,0.0013303,1053.43,0.000332575,263.359,""
249519,20,0.00132612,1054.18,0.00033153,263.546,""
249915,20,0.00132343,1054.71,0.000330858,263.677,""
250207,20,0.00132205,1055.09,0.000330513,263.774,""
250476,20,0.00131989,1055.45,0.000329974,263.863,""
250738,20,0.00131791,1055.8,0.000329478,263.949,""
251138,20,0.00131551,1056.32,0.000328877,264.081,""
252244,20,0.00130724,1057.77,0.000326811,264.443,""
252637,20,0.00130472,1058.29,0.00032618,264.571,""
253021,20,0.00130118,1058.79,0.000325294,264.697,""
253486,20,0.00129897,1059.39,0.000324742,264.848,""
253802,20,0.00129495,1059.8,0.000323738,264.95,""
254362,20,0.0012904,1060.52,0.0003226,265.131,""
254918,20,0.00128276,1061.24,0.000320689,265.31,""
255354,20,0.00127817,1061.8,0.000319543,265.45,""
255810,20,0.0012736,1062.38,0.000318401,265.595,""
256256,20,0.00127072,1062.95,0.00031768,265.737,""
256613,20,0.00126809,1063.4,0.000317023,265.85,""
257040,20,0.00126711,1063.94,0.000316778,265.986,""
257564,20,0.001268,1064.61,0.000316999,266.151,""
258143,20,0.00126291,1065.34,0.000315728,266.335,""
258663,20,0.00125907,1066,0.000314768,266.499,""
259377,20,0.0012545,1066.89,0.000313626,266.723,""
260039,20,0.00125098,1067.72,0.000312744,266.93,""
261106,20,0.00124285,1069.05,0.000310712,267.263,""
261644,20,0.00123962,1069.72,0.000309906,267.43,""
262059,20,0.00123636,1070.23,0.000309089,267.558,""
262541,20,0.00123374,1070.83,0.000308436,267.707,""
262852,20,0.00123049,1071.21,0.000307622,267.803,""
263318,20,0.00122761,1071.78,0.000306903,267.946,""
263847,20,0.0012247,1072.43,0.000306176,268.108,""
264224,20,0.00122338,1072.89,0.000305844,268.224,""
264859,20,0.00121782,1073.67,0.000304455,268.417,""
265290,20,0.00121529,1074.19,0.000303822,268.548,""
265550,20,0.00121462,1074.51,0.000303655,268.627,""
265784,20,0.00121216,1074.79,0.000303041,268.698,""
266127,20,0.001211,1075.21,0.00030275,268.802,""
267176,20,0.00120459,1076.48,0.000301148,269.119,""
267434,20,0.00120234,1076.79,0.000300584,269.197,""
267694,20,0.00120019,1077.1,0.000300048,269.275,""
268093,20,0.00119752,1077.58,0.00029938,269.394,""
268451,20,0.00119418,1078,0.000298546,269.501,""
268936,20,0.00119122,1078.58,0.000297806,269.646,""
269295,20,0.00118876,1079.01,0.00029719,269.753,""
269629,20,0.0011877,1079.41,0.000296926,269.852,""
270033,20,0.00118544,1079.89,0.00029636,269.972,""
271040,20,0.00118012,1081.08,0.00029503,270.269,""
271459,20,0.00117655,1081.57,0.000294139,270.393,""
272222,20,0.00117189,1082.47,0.000292973,270.617,""
272482,20,0.00117032,1082.77,0.00029258,270.693,""
272712,20,0.00116877,1083.04,0.000292193,270.76,""
272976,20,0.00116659,1083.35,0.000291646,270.838,""
273246,20,0.00116546,1083.66,0.000291364,270.916,""
273534,20,0.00116343,1084,0.000290857,271,""
274330,20,0.00115848,1084.92,0.000289619,271.231,""
274723,20,0.00115678,1085.38,0.000289195,271.345,""
275110,20,0.00115377,1085.83,0.000288442,271.457,""
275381,20,0.00115223,1086.14,0.000288058,271.535,""
275915,20,0.00114902,1086.75,0.000287255,271.689,""
276311,20,0.00114733,1087.21,0.000286831,271.802,""
277062,20,0.00114444,1088.07,0.00028611,272.017,""
277423,20,0.00114205,1088.48,0.000285513,272.12,""
278046,20,0.00113944,1089.19,0.00028486,272.298,""
278698,20,0.00113658,1089.93,0.000284146,272.484,""
279207,20,0.001134,1090.51,0.0002835,272.628,""
279496,20,0.00113274,1090.84,0.000283184,272.71,""
280226,20,0.00112907,1091.66,0.000282269,272.916,""
280572,20,0.00112685,1092.05,0.000281713,273.014,""
281356,20,0.00112281,1092.94,0.000280703,273.234,""
281828,20,0.00111878,1093.47,0.000279696,273.366,""
282344,20,0.00111638,1094.04,0.000279096,273.511,""
282698,20,0.00111457,1094.44,0.000278642,273.609,""
283015,20,0.00111276,1094.79,0.000278191,273.698,""
283346,20,0.00111164,1095.16,0.00027791,273.79,""
283643,20,0.0011094,1095.49,0.00027735,273.872,""
283889,20,0.00110817,1095.76,0.000277042,273.94,""
284467,20,0.00110499,1096.4,0.000276246,274.1,""
284969,20,0.00110466,1096.95,0.000276165,274.239,""
285252,20,0.00110433,1097.27,0.000276083,274.317,""
285534,20,0.00110282,1097.58,0.000275706,274.395,""
285806,20,0.00110183,1097.88,0.000275458,274.47,""
286049,20,0.00109947,1098.15,0.000274868,274.537,""
286367,20,0.00109778,1098.5,0.000274444,274.624,""
286987,20,0.00109613,1099.18,0.000274033,274.794,""
287374,20,0.00109467,1099.6,0.000273667,274.9,""
287906,20,0.00109205,1100.18,0.000273012,275.045,""
288510,20,0.00108997,1100.84,0.000272494,275.21,""
289216,20,0.00108633,1101.61,0.000271583,275.402,""
289586,20,0.00108495,1102.01,0.000271238,275.503,""
289856,20,0.00108339,1102.3,0.000270846,275.576,""
290327,20,0.00108201,1102.81,0.000270504,275.703,""
290750,20,0.00108027,1103.27,0.000270067,275.818,""
291052,20,0.00108013,1103.6,0.000270032,275.899,""
291394,20,0.00107822,1103.97,0.000269554,275.991,""
291782,20,0.00107587,1104.38,0.000268969,276.096,""
292082,20,0.00107534,1104.71,0.000268835,276.177,""
292514,20,0.00107404,1105.17,0.000268511,276.293,""
292839,20,0.00107271,1105.52,0.000268178,276.38,""
293234,20,0.00107228,1105.94,0.00026807,276.486,""
293502,20,0.00107142,1106.23,0.000267854,276.558,""
293913,20,0.00106927,1106.67,0.000267318,276.668,""
294269,20,0.00106856,1107.05,0.00026714,276.763,""
294621,20,0.00106698,1107.43,0.000266745,276.857,""
294803,20,0.00106572,1107.62,0.000266429,276.905,""
295342,20,0.0010639,1108.19,0.000265975,277.049,""
295668,20,0.00106224,1108.54,0.000265561,277.135,""
296181,20,0.00105913,1109.08,0.000264782,277.271,""
296848,20,0.00105615,1109.79,0.000264037,277.448,""
297190,20,0.00105507,1110.15,0.000263766,277.538,""
297897,20,0.00105179,1110.9,0.000262948,277.724,""
298422,20,0.00104944,1111.45,0.000262361,277.862,""
298669,20,0.0010481,1111.71,0.000262026,277.927,""
299338,20,0.00104634,1112.41,0.000261585,278.102,""
299732,20,0.00104334,1112.82,0.000260835,278.205,""
300047,20,0.0010476,1113.15,0.000261899,278.287,""
300548,20,0.00103916,1113.67,0.00025979,278.418,""
300906,20,0.00103859,1114.04,0.000259647,278.511,""
301240,20,0.0010375,1114.39,0.000259375,278.597,""
301664,20,0.0010359,1114.83,0.000258975,278.707,""
302092,20,0.00103469,1115.27,0.000258672,278.818,""
302637,20,0.00103336,1115.83,0.00025834,278.959,""
303429,20,0.0010306,1116.65,0.00025765,279.163,""
303915,20,0.0010292,1117.15,0.0002573,279.288,""
304206,20,0.00102731,1117.45,0.000256827,279.363,""
304941,20,0.00102556,1118.21,0.000256391,279.552,""
305194,20,0.00102429,1118.47,0.000256073,279.616,""
305677,20,0.00102286,1118.96,0.000255715,279.74,""
306007,20,0.00102187,1119.3,0.000255468,279.824,""
306343,20,0.00102027,1119.64,0.000255068,279.91,""
307540,20,0.00101689,1120.86,0.000254222,280.215,""
307919,20,0.00101681,1121.24,0.000254203,280.311,""
308162,20,0.00101552,1121.49,0.000253881,280.373,""
308713,20,0.00101314,1122.05,0.000253286,280.513,""
309069,20,0.00101093,1122.41,0.000252733,280.603,""
309766,20,0.001008,1123.12,0.000252,280.779,""
310039,20,0.0010058,1123.39,0.000251449,280.847,""
310618,20,0.00100418,1123.97,0.000251044,280.993,""
311294,20,0.00100264,1124.65,0.000250661,281.163,""
311888,20,0.00100007,1125.25,0.000250019,281.311,""
312212,20,0.000998856,1125.57,0.000249714,281.392,""
312724,20,0.000996653,1126.08,0.000249163,281.52,""
313086,20,0.000995132,1126.44,0.000248783,281.61,""
313322,20,0.000993328,1126.68,0.000248332,281.669,""
313608,20,0.000993068,1126.96,0.000248267,281.74,""
313914,20,0.000992455,1127.26,0.000248114,281.816,""
314255,20,0.000991092,1127.6,0.000247773,281.9,""
314831,20,0.000988627,1128.17,0.000247157,282.043,""
315195,20,0.0009883,1128.53,0.000247075,282.133,""
315548,20,0.000987072,1128.88,0.000246768,282.22,""
315888,20,0.000985055,1129.21,0.000246264,282.304,""
316207,20,0.000983437,1129.53,0.000245859,282.382,""
316565,20,0.000981339,1129.88,0.000245335,282.47,""
317005,20,0.000978755,1130.31,0.000244689,282.578,""
317412,20,0.000977017,1130.71,0.000244254,282.677,""
317794,20,0.000976534,1131.08,0.000244134,282.771,""
318070,20,0.000975343,1131.35,0.000243836,282.838,""
318411,20,0.000975047,1131.68,0.000243762,282.921,""
318983,20,0.000973072,1132.24,0.000243268,283.06,""
319391,20,0.00097328,1132.64,0.00024332,283.16,""
319835,20,0.000970883,1133.07,0.000242721,283.268,""
320668,20,0.000967978,1133.88,0.000241994,283.469,""
321073,20,0.000967501,1134.27,0.000241875,283.567,""
321807,20,0.000964586,1134.98,0.000241146,283.745,""
322714,20,0.000965948,1135.85,0.000241487,283.964,""
322721,20,0.000965959,1135.86,0.00024149,283.965,""
322728,20,0.000965969,1135.87,0.000241492,283.967,""
322735,20,0.00096598,1135.87,0.000241495,283.969,""
322742,20,0.000965991,1135.88,0.000241498,283.97,""
322749,20,0.000966001,1135.89,0.0002415,283.972,""
322756,20,0.000966012,1135.89,0.000241503,283.974,""
322763,20,0.000966023,1135.9,0.000241506,283.975,""
322765,20,0.000966026,1135.9,0.000241507,283.976,""
322766,20,NaN,NaN,NaN,NaN,""
322767,20,NaN,NaN,NaN,NaN,""
322768,20,NaN,NaN,NaN,NaN,""
322768,20,NaN,NaN,NaN,NaN,"Ampoule removed"
322769,20,NaN,NaN,NaN,NaN,""
322770,20,NaN,NaN,NaN,NaN,""