File: TAInstCalorimetry/DATA/myexp11.csv
Summary
,Component - OPC
Mass,4g
Name,"OPC"
ID,"Bernburg CEM I 42.5R 29.09.21"

"Time","Temperature [AmbientT(Therm3T)]","Temperature [Temperature]","Heat flow [Signal]","Heat [Signal]","Normalized heat flow [Signal]","Normalized heat [Signal]","Time markers"
-1932.35,24.5504,19.9995,1.70161e-06,NaN,4.25402e-07,NaN,""
-1914.77,24.5408,19.9999,1.72828e-06,NaN,4.3207e-07,NaN,""
-1904.26,24.5372,19.9999,1.74424e-06,NaN,4.36059e-07,NaN,""
-1886.75,24.533,19.9999,1.71792e-06,NaN,4.2948e-07,NaN,""
-1868.6,24.5465,20,1.65473e-06,NaN,4.13684e-07,NaN,""
-1855.53,24.5797,20,1.56561e-06,NaN,3.91402e-07,NaN,""
-1842.46,24.5748,20,1.36705e-06,NaN,3.41763e-07,NaN,""
-1833.49,24.5443,19.9999,1.23076e-06,NaN,3.07691e-07,NaN,""
-1814.3,24.5503,19.9999,9.53671e-07,NaN,2.38418e-07,NaN,""
-1792.12,24.5572,19.9998,6.65281e-07,NaN,1.6632e-07,NaN,""
-1769.94,24.5641,19.9999,4.12446e-07,NaN,1.03111e-07,NaN,""
-1741.77,24.5697,20.0001,1.98406e-07,NaN,4.96016e-08,NaN,""
-1713.6,24.5738,20.0001,-1.56332e-08,NaN,-3.90831e-09,NaN,""
-1678.38,24.579,20,6.52493e-08,NaN,1.63123e-08,NaN,""
-1677.59,24.5791,20,6.8366e-08,NaN,1.70915e-08,NaN,""
-1662.55,24.5676,20,-1.04765e-08,NaN,-2.61912e-09,NaN,""
-1646.56,24.5555,20.0003,-9.42831e-08,NaN,-2.35708e-08,NaN,""
-1637.02,24.5606,20.0003,-3.34635e-08,NaN,-8.36587e-09,NaN,""
-1625.85,24.5871,20.0002,3.77667e-08,NaN,9.44168e-09,NaN,""
-1598.6,24.5601,20.0001,2.11471e-07,NaN,5.28678e-08,NaN,""
-1582.88,24.5698,20,5.69379e-09,NaN,1.42345e-09,NaN,""
-1566.98,24.589,20,-2.02281e-07,NaN,-5.05704e-08,NaN,""
-1566.22,24.5899,20,-2.1221e-07,NaN,-5.30524e-08,NaN,""
-1557.57,24.5252,19.9999,-3.25471e-07,NaN,-8.13677e-08,NaN,""
-1539.76,24.5517,19.9999,-2.6052e-07,NaN,-6.51299e-08,NaN,""
-1526.71,24.5711,19.9999,-2.95959e-07,NaN,-7.39897e-08,NaN,""
-1518.61,24.5773,19.9999,-4.41959e-07,NaN,-1.1049e-07,NaN,""
-1510.5,24.5751,19.9999,-5.29842e-07,NaN,-1.3246e-07,NaN,""
-1497.18,24.5716,19.9999,-5.80835e-07,NaN,-1.45209e-07,NaN,""
-1472.86,24.5651,19.9998,-8.53325e-07,NaN,-2.13331e-07,NaN,""
-1458.24,24.5619,19.9999,-6.87972e-07,NaN,-1.71993e-07,NaN,""
-1442.86,24.5601,19.9999,-3.37837e-07,NaN,-8.44592e-08,NaN,""
-1413.66,24.5568,20.0001,-2.4576e-07,NaN,-6.14399e-08,NaN,""
-1376.15,24.5525,20.0002,-1.27457e-07,NaN,-3.18644e-08,NaN,""
-1356.52,24.5649,19.9999,8.54296e-08,NaN,2.13574e-08,NaN,""
-1342.73,24.5795,19.9997,2.34916e-07,NaN,5.8729e-08,NaN,""
-1319.25,24.5994,19.9996,4.80929e-07,NaN,1.20232e-07,NaN,""
-1285.92,24.5753,19.9996,3.48832e-07,NaN,8.7208e-08,NaN,""
-1280.13,24.6006,19.9997,3.25891e-07,NaN,8.14726e-08,NaN,""
-1274.35,24.6259,19.9998,3.02949e-07,NaN,7.57373e-08,NaN,""
-1258.45,24.5947,20,4.02868e-07,NaN,1.00717e-07,NaN,""
-1245.78,24.5699,20.0002,5.71342e-07,NaN,1.42836e-07,NaN,""
-1235.18,24.5652,20.0003,5.50469e-07,NaN,1.37617e-07,NaN,""
-1224.58,24.5676,20.0003,5.29596e-07,NaN,1.32399e-07,NaN,""
-1206.73,24.5717,20.0004,6.32603e-07,NaN,1.58151e-07,NaN,""
-1196.1,24.5741,20.0001,6.36587e-07,NaN,1.59147e-07,NaN,""
-1187.6,24.576,19.9999,5.41562e-07,NaN,1.35391e-07,NaN,""
-1179.21,24.5779,19.9999,6.23722e-07,NaN,1.55931e-07,NaN,""
-1170.81,24.5798,19.9999,7.05882e-07,NaN,1.7647e-07,NaN,""
-1153.41,24.5819,19.9999,5.25534e-07,NaN,1.31383e-07,NaN,""
-1136.02,24.5651,20,3.45185e-07,NaN,8.62964e-08,NaN,""
-1117.89,24.5498,20,1.90836e-07,NaN,4.77089e-08,NaN,""
-1092.04,24.5905,20,-2.9341e-08,NaN,-7.33525e-09,NaN,""
-1076.23,24.5859,20,-1.63903e-07,NaN,-4.09759e-08,NaN,""
-1074.17,24.5836,19.9999,-1.81438e-07,NaN,-4.53595e-08,NaN,""
-1056.33,24.5634,19.9999,1.79013e-07,NaN,4.47532e-08,NaN,""
-1033.93,24.5679,19.9998,2.61116e-08,NaN,6.5279e-09,NaN,""
-1026.22,24.5945,19.9997,-2.6544e-08,NaN,-6.636e-09,NaN,""
-1003.81,24.5933,19.9999,-1.15302e-07,NaN,-2.88256e-08,NaN,""
-975.263,24.5918,20,-7.27912e-08,NaN,-1.81978e-08,NaN,""
-952.609,24.5935,20.0002,-1.98802e-07,NaN,-4.97006e-08,NaN,""
-934.589,24.5948,20.0001,-3.83448e-07,NaN,-9.5862e-08,NaN,""
-916.568,24.5961,19.9999,-6.02732e-07,NaN,-1.50683e-07,NaN,""
-909.94,24.5966,19.9999,-6.87515e-07,NaN,-1.71879e-07,NaN,""
-906.299,24.6177,19.9998,-7.34083e-07,NaN,-1.83521e-07,NaN,""
-902.823,24.6341,19.9998,-7.21712e-07,NaN,-1.80428e-07,NaN,""
-900.003,24.5864,19.9998,-7.11676e-07,NaN,-1.77919e-07,NaN,""
-897.182,24.5419,19.9998,-7.0164e-07,NaN,-1.7541e-07,NaN,""
-882.507,24.5789,19.9999,-6.49418e-07,NaN,-1.62355e-07,NaN,""
-865.209,24.5791,20.0001,-5.87866e-07,NaN,-1.46966e-07,NaN,""
-853.059,24.5792,20.0001,-3.99495e-07,NaN,-9.98738e-08,NaN,""
-840.909,24.5531,20,-2.11124e-07,NaN,-5.27811e-08,NaN,""
-830.846,24.5172,19.9999,-1.22872e-07,NaN,-3.0718e-08,NaN,""
-820.889,24.5436,19.9998,-3.82206e-08,NaN,-9.55515e-09,NaN,""
-809.819,24.573,19.9997,-2.21978e-07,NaN,-5.54946e-08,NaN,""
-798.823,24.5731,19.9996,-4.00696e-07,NaN,-1.00174e-07,NaN,""
-781.176,24.5732,19.9997,-3.19672e-07,NaN,-7.99181e-08,NaN,""
-763.529,24.5827,19.9999,-2.40582e-07,NaN,-6.01454e-08,NaN,""
-745.135,24.6081,20,-3.5404e-07,NaN,-8.851e-08,NaN,""
-725.565,24.6352,20,-4.74748e-07,NaN,-1.18687e-07,NaN,""
-721.495,24.6089,20,-4.99854e-07,NaN,-1.24964e-07,NaN,""
-717.424,24.5825,19.9999,-5.24961e-07,NaN,-1.3124e-07,NaN,""
-704.704,24.5709,19.9997,-5.81271e-07,NaN,-1.45318e-07,NaN,""
-691.983,24.5593,19.9996,-3.98837e-07,NaN,-9.97092e-08,NaN,""
-673.691,24.555,19.9996,-1.36501e-07,NaN,-3.41252e-08,NaN,""
-650.766,24.574,19.9998,7.84255e-08,NaN,1.96064e-08,NaN,""
-628.753,24.5922,19.9999,1.20762e-07,NaN,3.01904e-08,NaN,""
-618.096,24.601,19.9999,-9.99454e-08,NaN,-2.49863e-08,NaN,""
-607.44,24.5893,19.9999,-3.20652e-07,NaN,-8.01631e-08,NaN,""
-590.753,24.5709,19.9999,-1.77405e-07,NaN,-4.43513e-08,NaN,""
-570.695,24.5548,19.9999,-3.49875e-07,NaN,-8.74688e-08,NaN,""
-550.638,24.5699,19.9999,-5.22345e-07,NaN,-1.30586e-07,NaN,""
-534.603,24.582,19.9999,-3.03159e-07,NaN,-7.57898e-08,NaN,""
-519.957,24.5931,19.9997,-1.25574e-07,NaN,-3.13934e-08,NaN,""
-500.417,24.6078,19.9995,-1.76544e-07,NaN,-4.4136e-08,NaN,""
-497.967,24.6096,19.9995,-9.88532e-08,NaN,-2.47133e-08,NaN,""
-487.846,24.5796,19.9994,2.22194e-07,NaN,5.55484e-08,NaN,""
-481.698,24.5614,19.9996,3.21163e-07,NaN,8.02908e-08,NaN,""
-475.549,24.5639,19.9998,3.77985e-07,NaN,9.44961e-08,NaN,""
-465.66,24.5718,19.9998,4.595e-07,NaN,1.14875e-07,NaN,""
-443.721,24.5894,19.9999,2.5497e-07,NaN,6.37424e-08,NaN,""
-427.756,24.6007,19.9997,1.37966e-07,NaN,3.44915e-08,NaN,""
-411.79,24.5745,19.9996,1.81875e-07,NaN,4.54688e-08,NaN,""
-401.267,24.5967,19.9997,-2.97631e-08,NaN,-7.44078e-09,NaN,""
-396.314,24.6496,19.9998,-6.47938e-08,NaN,-1.61984e-08,NaN,""
-390.673,24.675,19.9999,-3.89281e-08,NaN,-9.73203e-09,NaN,""
-382.351,24.6488,20,-1.07027e-08,NaN,-2.67568e-09,NaN,""
-373.298,24.6202,20,-1.71426e-07,NaN,-4.28564e-08,NaN,""
-364.245,24.6007,19.9999,-3.19077e-07,NaN,-7.97694e-08,NaN,""
-345.971,24.6271,19.9998,-1.06526e-07,NaN,-2.66316e-08,NaN,""
-336.549,24.6333,19.9998,-2.20469e-07,NaN,-5.51174e-08,NaN,""
-318.784,24.5973,19.9999,-4.40984e-07,NaN,-1.10246e-07,NaN,""
-313.147,24.5976,19.9998,-5.1095e-07,NaN,-1.27737e-07,NaN,""
-307.51,24.5992,19.9997,-6.27418e-07,NaN,-1.56855e-07,NaN,""
-288.409,24.6048,19.9997,-1.14948e-06,NaN,-2.8737e-07,NaN,""
-263.354,24.6121,19.9998,-1.11757e-06,NaN,-2.79392e-07,NaN,""
-241.796,24.6185,20,-9.1532e-07,NaN,-2.2883e-07,NaN,""
-220.238,24.6199,20.0002,-7.13073e-07,NaN,-1.78268e-07,NaN,""
-196.956,24.6095,20.0004,-8.45399e-07,NaN,-2.1135e-07,NaN,""
-180.474,24.6021,20.0002,-6.98604e-07,NaN,-1.74651e-07,NaN,""
-167.018,24.5974,20.0001,-5.78758e-07,NaN,-1.44689e-07,NaN,""
-153.562,24.6144,19.9996,-3.94633e-07,NaN,-9.86583e-08,NaN,""
-146.335,24.6236,19.9996,-2.85735e-07,NaN,-7.14337e-08,NaN,""
-134.346,24.6387,19.9996,-1.05073e-07,NaN,-2.62683e-08,NaN,""
-133.346,24.64,19.9996,1.80167e-05,NaN,4.50418e-06,NaN,""
-127.221,24.6477,19.9997,NaN,NaN,NaN,NaN,""
-122.971,24.5808,19.9997,NaN,NaN,NaN,NaN,""
-111.294,24.5854,19.9998,NaN,NaN,NaN,NaN,""
-99.6159,24.5899,20,NaN,NaN,NaN,NaN,""
-86.0436,24.6135,20.0002,NaN,NaN,NaN,NaN,""
-72.4714,24.6371,20.0002,NaN,NaN,NaN,NaN,""
-63.28,24.5903,20.0001,NaN,NaN,NaN,NaN,""
-54.1306,24.5438,20,NaN,NaN,NaN,NaN,""
-42.4401,24.5305,19.9998,NaN,NaN,NaN,NaN,""
-33.6403,24.4944,19.9998,NaN,NaN,NaN,NaN,""
-23.3464,24.3912,19.9998,NaN,NaN,NaN,NaN,""
-12.5651,24.5164,19.9999,NaN,NaN,NaN,NaN,""
1.5716,24.6315,19.9999,NaN,NaN,NaN,NaN,""
9.18097,24.6215,20,NaN,NaN,NaN,NaN,""
22.0013,24.5847,20.0001,NaN,NaN,NaN,NaN,""
41.5755,24.6525,20.0003,NaN,NaN,NaN,NaN,""
59.2689,24.7054,20.0002,NaN,NaN,NaN,NaN,""
79.8489,24.684,20,NaN,NaN,NaN,NaN,""
97.6068,24.6153,19.9999,NaN,NaN,NaN,NaN,""
109.187,24.5857,19.9999,NaN,NaN,NaN,NaN,""
123.919,24.5648,20,NaN,NaN,NaN,NaN,""
136.814,24.633,20,NaN,NaN,NaN,NaN,""
159.188,24.6304,20,NaN,NaN,NaN,NaN,""
181.562,24.6278,19.9998,NaN,NaN,NaN,NaN,""
217.617,24.6447,19.9995,NaN,NaN,NaN,NaN,""
237.537,24.5956,19.9994,NaN,NaN,NaN,NaN,""
251.056,24.5939,19.9996,NaN,NaN,NaN,NaN,""
267.324,24.6342,19.9998,NaN,NaN,NaN,NaN,""
288.653,24.6155,20,NaN,NaN,NaN,NaN,""
309.982,24.5969,20.0001,NaN,NaN,NaN,NaN,""
337.716,24.6426,20.0002,NaN,NaN,NaN,NaN,""
349.755,24.5784,20.0002,NaN,NaN,NaN,NaN,""
356.052,24.6036,20.0001,NaN,NaN,NaN,NaN,""
362.872,24.6371,20,NaN,NaN,NaN,NaN,""
371.556,24.6316,19.9999,NaN,NaN,NaN,NaN,""
401.657,24.6124,20.0001,NaN,NaN,NaN,NaN,""
420.804,24.631,20.0001,NaN,NaN,NaN,NaN,""
439.951,24.6495,20,NaN,NaN,NaN,NaN,""
463.301,24.6309,20,NaN,NaN,NaN,NaN,""
486.651,24.6123,19.9997,NaN,NaN,NaN,NaN,""
497.232,24.6503,19.9996,NaN,NaN,NaN,NaN,""
506.624,24.6696,19.9997,NaN,NaN,NaN,NaN,""
522.24,24.5366,19.9998,NaN,NaN,NaN,NaN,""
536.685,24.6272,19.9999,NaN,NaN,NaN,NaN,""
551.017,24.6276,19.9999,NaN,NaN,NaN,NaN,""
565.349,24.6281,19.9998,NaN,NaN,NaN,NaN,""
585.201,24.7018,19.9997,NaN,NaN,NaN,NaN,""
610.714,24.6735,19.9999,NaN,NaN,NaN,NaN,""
622.174,24.6608,20.0001,NaN,NaN,NaN,NaN,""
652.919,24.6377,20,NaN,NaN,NaN,NaN,""
683.665,24.6581,19.9999,NaN,NaN,NaN,NaN,""
718.053,24.6808,19.9998,NaN,NaN,NaN,NaN,""
738.857,24.6436,19.9998,NaN,NaN,NaN,NaN,""
755.149,24.6245,20,NaN,NaN,NaN,NaN,""
772.802,24.6323,20.0001,NaN,NaN,NaN,NaN,""
797.915,24.6433,19.9999,NaN,NaN,NaN,NaN,""
824.682,24.6551,20.0003,NaN,NaN,NaN,NaN,""
842.114,24.6384,20.0003,NaN,NaN,NaN,NaN,""
877.546,24.6045,19.9998,NaN,NaN,NaN,NaN,""
901.604,24.6029,19.9998,NaN,NaN,NaN,NaN,""
925.662,24.6189,19.9998,NaN,NaN,NaN,NaN,""
959.151,24.6413,19.9997,NaN,NaN,NaN,NaN,""
983.55,24.639,19.9998,NaN,NaN,NaN,NaN,""
1008.83,24.6367,20,NaN,NaN,NaN,NaN,""
1050.63,24.6328,19.9998,NaN,NaN,NaN,NaN,""
1077.65,24.6303,19.9993,NaN,NaN,NaN,NaN,""
1104.3,24.6278,19.9998,NaN,NaN,NaN,NaN,""
1118.51,24.6281,19.9998,NaN,NaN,NaN,NaN,""
1152.32,24.6287,19.9998,NaN,NaN,NaN,NaN,""
1216.13,24.6298,19.9995,NaN,NaN,NaN,NaN,""
1243.95,24.6302,19.9999,NaN,NaN,NaN,NaN,""
1292.08,24.6311,19.9999,NaN,NaN,NaN,NaN,""
1314.59,24.5848,19.9998,NaN,NaN,NaN,NaN,""
1336.94,24.623,19.9998,NaN,NaN,NaN,NaN,""
1359.29,24.6611,19.9997,NaN,NaN,NaN,NaN,""
1397.31,24.6495,19.9996,NaN,NaN,NaN,NaN,""
1424.12,24.6413,20,NaN,NaN,NaN,NaN,""
1438.51,24.644,19.9999,NaN,NaN,NaN,NaN,""
1452.9,24.6532,19.9998,NaN,NaN,NaN,NaN,""
1501.71,24.6841,20.0002,NaN,NaN,NaN,NaN,""
1510.64,24.6393,20.0002,NaN,NaN,NaN,NaN,""
1519.58,24.5945,20.0002,NaN,NaN,NaN,NaN,""
1540.65,24.7665,20.0001,NaN,NaN,NaN,NaN,""
1585.68,24.7291,20,NaN,NaN,NaN,NaN,""
1610.6,24.6675,20.0001,NaN,NaN,NaN,NaN,""
1626.3,24.6383,20.0001,NaN,NaN,NaN,NaN,""
1656.38,24.6598,20.0002,NaN,NaN,NaN,NaN,""
1681.27,24.6776,20,NaN,NaN,NaN,NaN,""
1697.61,24.6779,19.9996,NaN,NaN,NaN,NaN,""
1702.91,24.6781,19.9996,NaN,NaN,NaN,NaN,""
1725.04,24.6785,20,NaN,NaN,NaN,NaN,""
1763.98,24.6794,20,NaN,NaN,NaN,NaN,""
1765.79,24.6794,20,NaN,NaN,NaN,NaN,""
1776.59,24.6013,19.9999,NaN,NaN,NaN,NaN,""
1800.71,24.6393,19.9997,NaN,NaN,NaN,NaN,""
1817.08,24.6509,19.9999,NaN,NaN,NaN,NaN,""
1850.18,24.6418,20.0003,NaN,NaN,NaN,NaN,""
1853.65,24.6497,20.0004,NaN,NaN,NaN,NaN,""
1868.89,24.684,20,NaN,NaN,NaN,NaN,""
1884.19,24.6977,20,NaN,NaN,NaN,NaN,""
1900.62,24.6351,19.9999,NaN,NaN,NaN,NaN,""
1912.28,24.6313,20,NaN,NaN,NaN,NaN,""
1929.67,24.6517,20.0002,NaN,NaN,NaN,NaN,""
1940.71,24.6634,20,NaN,NaN,NaN,NaN,""
1951.75,24.6681,19.9999,NaN,NaN,NaN,NaN,""
1995.35,24.6865,20.0001,NaN,NaN,NaN,NaN,""
1997.69,24.683,20.0001,NaN,NaN,NaN,NaN,""
2009.65,24.6653,20.0003,NaN,NaN,NaN,NaN,""
2023.06,24.6487,20.0003,NaN,NaN,NaN,NaN,""
2048.78,24.7018,20.0001,NaN,NaN,NaN,NaN,""
2065.86,24.6694,20,NaN,NaN,NaN,NaN,""
2082.95,24.6369,19.9999,NaN,NaN,NaN,NaN,""
2108.15,24.6435,19.9996,NaN,NaN,NaN,NaN,""
2136.11,24.6508,19.9998,NaN,NaN,NaN,NaN,""
2150.09,24.63,20,NaN,NaN,NaN,NaN,""
2164.07,24.5947,20.0003,NaN,NaN,NaN,NaN,""
2177.95,24.6296,20.0002,NaN,NaN,NaN,NaN,""
2194.68,24.7195,20.0001,NaN,NaN,NaN,NaN,""
2209.15,24.7972,19.9995,NaN,NaN,NaN,NaN,""
2209.28,24.7979,19.9995,NaN,NaN,NaN,NaN,""
2217.78,24.711,19.9996,NaN,NaN,NaN,NaN,""
2246.61,24.7027,19.9996,NaN,NaN,NaN,NaN,""
2283.15,24.6922,19.9994,NaN,NaN,NaN,NaN,""
2300.33,24.6926,19.9997,NaN,NaN,NaN,NaN,""
2317.52,24.7044,20,NaN,NaN,NaN,NaN,""
2337.21,24.7121,20,NaN,NaN,NaN,NaN,""
2356.61,24.6868,20,NaN,NaN,NaN,NaN,""
2379.78,24.7511,19.9999,NaN,NaN,NaN,NaN,""
2403.67,24.6862,19.9999,NaN,NaN,NaN,NaN,""
2419.23,24.6685,20,NaN,NaN,NaN,NaN,""
2450.52,24.6757,20.0002,NaN,NaN,NaN,NaN,""
2478.97,24.6822,19.9998,NaN,NaN,NaN,NaN,""
2497.63,24.6751,20,NaN,NaN,NaN,NaN,""
2516.29,24.6674,20.0002,NaN,NaN,NaN,NaN,""
2536.45,24.7016,20.0001,NaN,NaN,NaN,NaN,""
2555.34,24.7432,20,NaN,NaN,NaN,NaN,""
2563.15,24.7001,20,NaN,NaN,NaN,NaN,""
2570.96,24.6569,19.9999,NaN,NaN,NaN,NaN,""
2600.64,24.6836,19.9995,NaN,NaN,NaN,NaN,""
2623.58,24.6714,19.9997,NaN,NaN,NaN,NaN,""
2635.93,24.6648,19.9999,NaN,NaN,NaN,NaN,""
2651.15,24.6739,20.0001,NaN,NaN,NaN,NaN,""
2660.77,24.7067,20.0003,NaN,NaN,NaN,NaN,""
2674.91,24.682,20.0002,NaN,NaN,NaN,NaN,""
2687.83,24.6595,20,NaN,NaN,NaN,NaN,""
2698.72,24.6652,20.0001,NaN,NaN,NaN,NaN,""
2709.61,24.6741,20.0002,NaN,NaN,NaN,NaN,""
2725.93,24.6873,19.9998,NaN,NaN,NaN,NaN,""
2745.68,24.6756,19.9999,NaN,NaN,NaN,NaN,""
2772.78,24.6537,20,NaN,NaN,NaN,NaN,""
2788.73,24.7115,20,NaN,NaN,NaN,NaN,""
2804.68,24.7694,20,NaN,NaN,NaN,NaN,""
2826.55,24.7392,20,NaN,NaN,NaN,NaN,""
2844.49,24.7144,19.9997,NaN,NaN,NaN,NaN,""
2856.79,24.7105,19.9996,NaN,NaN,NaN,NaN,""
2903.15,24.6958,19.9998,NaN,NaN,NaN,NaN,""
2945.03,24.6825,20.0002,NaN,NaN,NaN,NaN,""
2950.65,24.721,20.0002,NaN,NaN,NaN,NaN,""
2956.27,24.7595,20.0001,NaN,NaN,NaN,NaN,""
2973.9,24.7502,19.9998,NaN,NaN,NaN,NaN,""
2999.03,24.737,19.9999,NaN,NaN,NaN,NaN,""
3017.46,24.7274,19.9999,NaN,NaN,NaN,NaN,""
3035.9,24.7178,19.9999,NaN,NaN,NaN,NaN,""
3040.97,24.6367,19.9999,NaN,NaN,NaN,NaN,""
3065.27,24.6694,19.9998,NaN,NaN,NaN,NaN,""
3086.44,24.6809,19.9998,NaN,NaN,NaN,NaN,""
3107.61,24.6925,19.9999,NaN,NaN,NaN,NaN,""
3117.89,24.6575,20,NaN,NaN,NaN,NaN,""
3126.26,24.6377,19.9999,NaN,NaN,NaN,NaN,""
3155.12,24.6693,19.9994,NaN,NaN,NaN,NaN,""
3172.45,24.6677,19.9996,NaN,NaN,NaN,NaN,""
3193.93,24.6584,19.9999,NaN,NaN,NaN,NaN,""
3214.1,24.6778,19.9999,NaN,NaN,NaN,NaN,""
3225.33,24.682,19.9999,NaN,NaN,NaN,NaN,""
3237.3,24.6575,19.9998,NaN,NaN,NaN,NaN,""
3248.57,24.6629,19.9999,NaN,NaN,NaN,NaN,""
3262.35,24.7282,19.9999,NaN,NaN,NaN,NaN,""
3283.26,24.7909,20,NaN,NaN,NaN,NaN,""
3287.58,24.7715,20,NaN,NaN,NaN,NaN,""
3302.78,24.7032,19.9998,NaN,NaN,NaN,NaN,""
3312.07,24.7166,19.9998,NaN,NaN,NaN,NaN,""
3325.91,24.7365,19.9998,NaN,NaN,NaN,NaN,""
3355.27,24.6822,20,NaN,NaN,NaN,NaN,""
3380.52,24.7075,19.9999,NaN,NaN,NaN,NaN,""
3402.33,24.7293,19.9998,NaN,NaN,NaN,NaN,""
3417.77,24.742,20,NaN,NaN,NaN,NaN,""
3433.22,24.7396,20.0002,NaN,NaN,NaN,NaN,""
3454.49,24.7363,20,NaN,NaN,NaN,NaN,""
3473.39,24.776,19.9999,NaN,NaN,NaN,NaN,""
3487.61,24.772,19.9999,NaN,NaN,NaN,NaN,""
3495.28,24.7327,19.9999,NaN,NaN,NaN,NaN,""
3504.15,24.6367,19.9999,NaN,NaN,NaN,NaN,""
3536.42,24.6653,20,NaN,NaN,NaN,NaN,""
3543.58,24.6683,20,NaN,NaN,NaN,NaN,""
3561.09,24.6755,20.0004,NaN,NaN,NaN,NaN,""
3577.76,24.6824,20,NaN,NaN,NaN,NaN,""
3605.1,24.6792,20,NaN,NaN,NaN,NaN,""
3623.12,24.668,20,NaN,NaN,NaN,NaN,""
3651.43,24.7012,20,NaN,NaN,NaN,NaN,""
3667.82,24.6611,20,NaN,NaN,NaN,NaN,""
3680.2,24.6609,20.0001,NaN,NaN,NaN,NaN,""
3689.18,24.7065,20.0001,NaN,NaN,NaN,NaN,""
3715.1,24.6902,20.0003,NaN,NaN,NaN,NaN,""
3738.53,24.7303,20.0004,NaN,NaN,NaN,NaN,""
3745.02,24.7352,20.0002,NaN,NaN,NaN,NaN,""
3751.51,24.7113,19.9999,NaN,NaN,NaN,NaN,""
3761.18,24.6758,19.9999,NaN,NaN,NaN,NaN,""
3775.4,24.7425,19.9998,NaN,NaN,NaN,NaN,""
3790.22,24.6551,19.9998,NaN,NaN,NaN,NaN,""
3799.26,24.6222,19.9997,NaN,NaN,NaN,NaN,""
3807.08,24.6215,19.9998,NaN,NaN,NaN,NaN,""
3815.28,24.7798,19.9998,NaN,NaN,NaN,NaN,""
3862,24.7779,20,NaN,NaN,NaN,NaN,""
3889.17,24.73,20.0001,NaN,NaN,NaN,NaN,""
3909.08,24.7104,20.0001,NaN,NaN,NaN,NaN,""
3950.76,24.7263,20.0002,NaN,NaN,NaN,NaN,""
3969.12,24.749,20,NaN,NaN,NaN,NaN,""
3987.48,24.7718,19.9995,NaN,NaN,NaN,NaN,""
4000.32,24.7515,19.9996,NaN,NaN,NaN,NaN,""
4010.26,24.7359,19.9998,NaN,NaN,NaN,NaN,""
4023.29,24.7214,20,NaN,NaN,NaN,NaN,""
4042.4,24.7032,20.0004,NaN,NaN,NaN,NaN,""
4062.39,24.6752,20.0003,NaN,NaN,NaN,NaN,""
4074.48,24.632,20.0002,NaN,NaN,NaN,NaN,""
4082.39,24.6866,20.0001,NaN,NaN,NaN,NaN,""
4088.18,24.7112,20,NaN,NaN,NaN,NaN,""
4110.97,24.702,19.9996,NaN,NaN,NaN,NaN,""
4128.89,24.6948,19.9999,NaN,NaN,NaN,NaN,""
4139.15,24.7103,19.9999,NaN,NaN,NaN,NaN,""
4156.37,24.7362,19.9998,NaN,NaN,NaN,NaN,""
4168.2,24.6723,19.9997,NaN,NaN,NaN,NaN,""
4189.68,24.7035,19.9996,NaN,NaN,NaN,NaN,""
4206.51,24.7266,19.9997,NaN,NaN,NaN,NaN,""
4227.41,24.7515,19.9998,NaN,NaN,NaN,NaN,""
4243.62,24.6947,19.9999,NaN,NaN,NaN,NaN,""
4254.67,24.6418,19.9998,NaN,NaN,NaN,NaN,""
4265.67,24.5731,19.9998,NaN,NaN,NaN,NaN,""
4280.92,24.6777,19.9998,NaN,NaN,NaN,NaN,""
4296.53,24.724,19.9998,NaN,NaN,NaN,NaN,""
4308.53,24.7596,20,NaN,NaN,NaN,NaN,""
4313.94,24.7395,20.0001,NaN,NaN,NaN,NaN,""
4318.67,24.7284,20.0001,NaN,NaN,NaN,NaN,""
4330.72,24.7968,20,NaN,NaN,NaN,NaN,""
4353.17,24.7385,19.9999,NaN,NaN,NaN,NaN,""
4379.44,24.742,19.9997,NaN,NaN,NaN,NaN,""
4405.71,24.7455,19.9996,NaN,NaN,NaN,NaN,""
4435.9,24.7007,19.9994,NaN,NaN,NaN,NaN,""
4445.34,24.7547,19.9994,NaN,NaN,NaN,NaN,""
4451.91,24.7582,19.9995,NaN,NaN,NaN,NaN,""
4457.75,24.7223,19.9996,NaN,NaN,NaN,NaN,"Reaction start. Measuring position. Signal correct"
4458.65,24.7167,19.9996,0.000185224,0.000167523,4.6306e-05,4.18807e-05,""
4701.15,24.6571,19.9998,0.000253285,0.0528983,6.33213e-05,0.0132246,""
4762.65,24.6292,20.0001,0.00788508,0.093715,0.00197127,0.0234288,""
4781.15,24.7966,19.9999,0.0629521,0.699195,0.015738,0.174799,""
4801.65,24.7752,19.9995,0.125757,2.6641,0.0314393,0.666024,""
4821.65,24.761,20,0.170734,5.67182,0.0426834,1.41795,""
4844.65,24.7529,19.9996,0.199755,9.92307,0.0499387,2.48077,""
4864.65,24.7459,19.9995,0.211304,14.0503,0.0528259,3.51258,""
4886.15,24.7451,19.9998,0.214648,18.6376,0.053662,4.65939,""
4918.15,24.7523,20,0.209795,25.4521,0.0524488,6.36303,""
4946.65,24.7587,20.0001,0.201059,31.3133,0.0502649,7.82834,""
4973.65,24.7768,19.9998,0.189064,36.5786,0.0472659,9.14465,""
5003.9,24.7322,19.9999,0.175812,42.0982,0.0439531,10.5246,""
5030.65,24.7109,19.9998,0.164762,46.6528,0.0411904,11.6632,""
5068.65,24.6906,19.9997,0.147883,52.5787,0.0369706,13.1447,""
5114.65,24.6877,19.9998,0.129752,58.9602,0.0324381,14.74,""
5161.65,24.6847,20,0.113189,64.6646,0.0282973,16.1661,""
5192.9,24.673,20.0001,0.103216,68.05,0.025804,17.0125,""
5239.65,24.6511,19.9998,0.0899244,72.5582,0.0224811,18.1395,""
5260.65,24.7568,20,0.0851521,74.3943,0.021288,18.5986,""
5295.15,24.8281,20.0002,0.0762979,77.1681,0.0190745,19.292,""
5337.75,24.7111,19.9998,0.0673099,80.2219,0.0168275,20.0555,""
5383.65,24.744,20.0002,0.0588479,83.1146,0.014712,20.7787,""
5426.65,24.6969,19.9999,0.0519766,85.4954,0.0129941,21.3739,""
5468.38,24.7556,19.9999,0.0460822,87.5398,0.0115205,21.885,""
5529.65,24.7039,19.9998,0.0387515,90.1343,0.00968786,22.5336,""
5567.87,24.703,19.9996,0.0348546,91.5413,0.00871366,22.8853,""
5635.53,24.6918,19.9999,0.0290207,93.6955,0.00725517,23.4239,""
5681.97,24.7454,20.0001,0.0257134,94.9649,0.00642835,23.7412,""
5743.03,24.7195,20.0001,0.0219439,96.4153,0.00548598,24.1038,""
5792.4,24.7149,19.9996,0.0195665,97.4369,0.00489162,24.3592,""
5833.65,24.7531,20,0.0176418,98.1999,0.00441044,24.55,""
5884.65,24.7242,19.9994,0.0156052,99.0456,0.0039013,24.7614,""
5982.97,24.7434,20,0.0125838,100.424,0.00314595,25.1059,""
6039.15,24.7088,19.9998,0.0112116,101.092,0.00280289,25.273,""
6125.03,24.7381,19.9997,0.00952292,101.979,0.00238073,25.4948,""
6185.48,24.7402,19.9998,0.00856898,102.526,0.00214225,25.6314,""
6308.56,24.7413,19.9993,0.00705484,103.481,0.00176371,25.8703,""
6432.19,24.786,19.9998,0.00597725,104.283,0.00149431,26.0709,""
6535.15,24.7558,19.9994,0.00532557,104.863,0.00133139,26.2159,""
6644.65,24.7073,19.9996,0.00476859,105.415,0.00119215,26.3538,""
6799.15,24.7178,20,0.00421392,106.106,0.00105348,26.5266,""
6985.65,24.7016,19.9996,0.00373049,106.844,0.000932623,26.711,""
7217.32,24.692,19.9999,0.00332109,107.658,0.000830273,26.9144,""
7401.08,24.7067,19.9996,0.00308201,108.245,0.000770503,27.0613,""
7690.75,24.6718,19.9998,0.00279516,109.094,0.000698789,27.2736,""
7888.97,24.6612,19.9999,0.00263889,109.633,0.000659723,27.4082,""
8089.41,24.6452,19.9996,0.00250224,110.148,0.000625559,27.5369,""
8446.4,24.5909,20,0.00229778,111.003,0.000574445,27.7508,""
8626.59,24.5978,19.9995,0.00220992,111.409,0.00055248,27.8523,""
8953.25,24.5763,19.9997,0.00206428,112.106,0.000516071,28.0266,""
9201.89,24.5771,19.9996,0.00196723,112.607,0.000491808,28.1518,""
9472.78,24.5564,20,0.00187245,113.127,0.000468112,28.2818,""
9815.03,24.5471,19.9995,0.00176529,113.749,0.000441323,28.4373,""
10106.5,24.5306,19.9999,0.00168447,114.252,0.000421117,28.563,""
10331.5,24.5055,19.9997,0.00162686,114.625,0.000406715,28.6561,""
10611.8,24.5391,19.9998,0.00156156,115.071,0.000390389,28.7678,""
10898.5,24.5062,19.9998,0.00150028,115.51,0.00037507,28.8775,""
11421.9,24.4438,19.9997,0.00140092,116.269,0.00035023,29.0672,""
11813.7,24.5017,19.9999,0.00133463,116.804,0.000333658,29.2011,""
12190,24.4619,19.9996,0.00127721,117.296,0.000319302,29.324,""
12594.7,24.5241,19.9999,0.00122206,117.801,0.000305516,29.4503,""
12948.1,24.4667,20.0001,0.00118219,118.226,0.000295547,29.5565,""
13340.6,24.4844,19.9998,0.00115353,118.683,0.000288382,29.6707,""
13619.2,24.484,19.9997,0.00113862,119.003,0.000284656,29.7507,""
13943.9,24.4586,19.9998,0.00109912,119.366,0.000274781,29.8416,""
14167.5,24.4403,19.9997,0.00106753,119.609,0.000266882,29.9021,""
14578.1,24.4521,19.9997,0.00101834,120.036,0.000254584,30.0091,""
14861.8,24.4796,20.0001,0.000989774,120.321,0.000247444,30.0802,""
15235.9,24.4276,19.9998,0.000956612,120.685,0.000239153,30.1712,""
15643.1,24.4396,19.9995,0.000923257,121.068,0.000230814,30.2669,""
16099.4,24.4277,20.0001,0.000889287,121.481,0.000222322,30.3702,""
16511.4,24.4226,19.9998,0.000861277,121.842,0.000215319,30.4604,""
16868.5,24.4172,19.9997,0.00083846,122.145,0.000209615,30.5363,""
17232.6,24.4353,19.9999,0.000816782,122.446,0.000204196,30.6116,""
17551.4,24.4388,19.9999,0.000798578,122.704,0.000199645,30.6759,""
17857.1,24.3964,19.9995,0.000782435,122.945,0.000195609,30.7364,""
18073,24.4116,19.9997,0.000771376,123.113,0.000192844,30.7783,""
18434.4,24.413,20.0001,0.000753922,123.389,0.000188481,30.8472,""
18714.5,24.4291,19.9999,0.00074101,123.598,0.000185253,30.8995,""
19078,24.3895,19.9998,0.000724969,123.865,0.000181242,30.9661,""
19338.4,24.4052,20,0.000713913,124.052,0.000178478,31.013,""
19704.7,24.3939,20.0003,0.00069886,124.311,0.000174715,31.0777,""
20008.7,24.411,20.0002,0.000686722,124.521,0.00017168,31.1303,""
20291.5,24.475,19.9997,0.000675664,124.714,0.000168916,31.1785,""
20688.9,24.3665,19.9999,0.00066057,124.979,0.000165142,31.2449,""
20983.5,24.3834,19.9996,0.00065128,125.173,0.00016282,31.2931,""
21316.7,24.3926,19.9995,0.000643382,125.388,0.000160845,31.347,""
21675.7,24.3516,19.9991,0.000637999,125.618,0.0001595,31.4045,""
22020.8,24.3736,19.9998,0.000635715,125.838,0.000158929,31.4594,""
22325.5,24.4156,19.9995,0.0006351,126.031,0.000158775,31.5078,""
22675.1,24.4139,19.9997,0.000635187,126.253,0.000158797,31.5633,""
23166.4,24.3963,19.9998,0.000636646,126.566,0.000159162,31.6414,""
23526.9,24.3887,19.9996,0.000637043,126.795,0.000159261,31.6988,""
23915,24.3765,19.9998,0.000637921,127.043,0.00015948,31.7606,""
24223.5,24.3797,19.9999,0.000638674,127.239,0.000159669,31.8099,""
24553.2,24.3877,19.9998,0.00063951,127.45,0.000159878,31.8626,""
24931.8,24.3744,19.9996,0.000640496,127.693,0.000160124,31.9231,""
25415.9,24.3564,19.9998,0.000640764,128.003,0.000160191,32.0007,""
25723.4,24.3355,19.9998,0.000639887,128.2,0.000159972,32.0499,""
26111.5,24.3591,19.9997,0.000639083,128.448,0.000159771,32.112,""
26440.1,24.3893,19.9996,0.000637649,128.658,0.000159412,32.1644,""
26777.7,24.3705,19.9998,0.000636021,128.873,0.000159005,32.2182,""
27148.7,24.3657,19.9996,0.000633229,129.108,0.000158307,32.277,""
27509.7,24.372,20,0.000631002,129.336,0.00015775,32.3341,""
27876.5,24.3687,20,0.000628475,129.568,0.000157119,32.3919,""
28215.7,24.3789,20,0.000626057,129.78,0.000156514,32.4451,""
28471,24.3463,20,0.00062381,129.94,0.000155952,32.485,""
28734.1,24.3721,19.9999,0.000621617,130.104,0.000155404,32.5259,""
29055.7,24.3587,19.9997,0.000618626,130.303,0.000154657,32.5758,""
29410.5,24.3577,19.9997,0.000615617,130.522,0.000153904,32.6305,""
29686,24.3552,19.9997,0.000613082,130.691,0.00015327,32.6728,""
30086.9,24.3386,19.9998,0.00060967,130.936,0.000152417,32.7341,""
30498.5,24.3453,19.9996,0.000606309,131.187,0.000151577,32.7966,""
30928.5,24.3428,20.0002,0.000602244,131.447,0.000150561,32.8616,""
31198,24.3456,19.9999,0.000599981,131.609,0.000149995,32.9021,""
31608.8,24.3525,19.9999,0.000596451,131.854,0.000149113,32.9636,""
32038.8,24.3526,20.0001,0.000592484,132.11,0.000148121,33.0275,""
32332.7,24.3237,19.9999,0.000590135,132.284,0.000147534,33.0709,""
32654.2,24.3255,19.9998,0.000587744,132.473,0.000146936,33.1183,""
32956.3,24.3435,19.9999,0.0005849,132.65,0.000146225,33.1626,""
33285.2,24.3295,19.9999,0.000582312,132.842,0.000145578,33.2106,""
33546.6,24.3795,19.9999,0.000580412,132.994,0.000145103,33.2486,""
33904.6,24.3539,19.9999,0.000577744,133.202,0.000144436,33.3004,""
34266.4,24.3323,19.9997,0.000574544,133.41,0.000143636,33.3525,""
34559.3,24.3375,20,0.000572723,133.578,0.000143181,33.3945,""
34823.4,24.351,19.9998,0.000570295,133.729,0.000142574,33.4323,""
35121.6,24.335,19.9999,0.00056877,133.899,0.000142193,33.4747,""
35480.8,24.342,19.9999,0.000565889,134.103,0.000141472,33.5257,""
35737.1,24.3663,19.9998,0.000564127,134.248,0.000141032,33.5619,""
36035.3,24.3157,19.9999,0.000562099,134.415,0.000140525,33.6039,""
36368.3,24.3326,19.9998,0.000560225,134.602,0.000140056,33.6506,""
36723.5,24.3653,19.9999,0.000557697,134.801,0.000139424,33.7002,""
37046.6,24.3297,19.9999,0.000556036,134.981,0.000139009,33.7452,""
37361.7,24.3146,20,0.000553528,135.156,0.000138382,33.7889,""
37700.6,24.3308,19.9995,0.000551679,135.343,0.00013792,33.8357,""
38045.8,24.3696,20,0.000549623,135.533,0.000137406,33.8833,""
38332.9,24.3654,19.9996,0.000547939,135.691,0.000136985,33.9227,""
38895.5,24.3564,19.9998,0.00054452,135.998,0.00013613,33.9995,""
39157.8,24.355,20,0.00054306,136.141,0.000135765,34.0352,""
39474.3,24.3406,19.9999,0.000541239,136.312,0.00013531,34.0781,""
39733.6,24.36,19.9996,0.000539835,136.452,0.000134959,34.1131,""
40111.8,24.3333,19.9996,0.000537703,136.656,0.000134426,34.164,""
40549.6,24.2881,20.0001,0.000535177,136.891,0.000133794,34.2228,""
40950.3,24.3227,19.9996,0.000533172,137.105,0.000133293,34.2763,""
41365.7,24.3054,19.9997,0.000530987,137.326,0.000132747,34.3316,""
41770.3,24.3242,20,0.000528621,137.541,0.000132155,34.3851,""
42118.2,24.3168,19.9998,0.000526855,137.724,0.000131714,34.4311,""
42458.7,24.3479,19.9997,0.000525403,137.903,0.000131351,34.4758,""
42915.9,24.3193,19.9999,0.000523046,138.143,0.000130762,34.5357,""
43324.8,24.3141,19.9997,0.000520981,138.356,0.000130245,34.5891,""
43637.7,24.3163,20.0002,0.00051944,138.519,0.00012986,34.6298,""
44049.7,24.2962,19.9996,0.000517487,138.733,0.000129372,34.6832,""
44412,24.3115,20.0001,0.000516056,138.92,0.000129014,34.73,""
44713.8,24.2983,19.9999,0.000514649,139.076,0.000128662,34.7689,""
45098.1,24.3401,20,0.000512654,139.273,0.000128164,34.8182,""
45378,24.3016,20.0001,0.000511238,139.416,0.000127809,34.854,""
45726.2,24.3107,19.9999,0.000509675,139.594,0.000127419,34.8985,""
46064.2,24.3125,19.9999,0.000508154,139.766,0.000127039,34.9415,""
46393.2,24.3282,20,0.000506598,139.933,0.00012665,34.9832,""
46657.6,24.3223,20,0.00050562,140.067,0.000126405,35.0166,""
46931.9,24.3315,19.9997,0.000504361,140.205,0.00012609,35.0513,""
47215.9,24.306,19.9997,0.00050329,140.348,0.000125822,35.087,""
47518.7,24.3013,19.9994,0.000501916,140.5,0.000125479,35.1251,""
47881.7,24.3046,20,0.000500433,140.682,0.000125108,35.1706,""
48253.8,24.3332,19.9997,0.000498866,140.868,0.000124716,35.217,""
48564.9,24.3045,19.9996,0.000497451,141.023,0.000124363,35.2558,""
48871.1,24.3194,20,0.000496237,141.175,0.000124059,35.2938,""
49223.2,24.3267,20.0004,0.000494724,141.35,0.000123681,35.3374,""
49511.2,24.3199,19.9997,0.000493507,141.492,0.000123377,35.373,""
49822.3,24.3213,19.9998,0.000492503,141.645,0.000123126,35.4114,""
50066.9,24.3617,19.9998,0.000491341,141.766,0.000122835,35.4414,""
50312.9,24.3148,19.9995,0.000490543,141.886,0.000122636,35.4716,""
50726,24.2988,20,0.00048883,142.089,0.000122207,35.5222,""
51090,24.331,19.9999,0.000487127,142.266,0.000121782,35.5666,""
51475.1,24.343,19.9999,0.000485893,142.454,0.000121473,35.6134,""
51908.8,24.3549,20.0001,0.000484021,142.664,0.000121005,35.666,""
52290.7,24.3231,19.9995,0.000482731,142.849,0.000120683,35.7122,""
52568.2,24.3019,19.9996,0.000481604,142.982,0.000120401,35.7456,""
52867.1,24.3379,19.9997,0.000480736,143.126,0.000120184,35.7816,""
53262.2,24.331,19.9998,0.000479705,143.316,0.000119926,35.829,""
53787,24.3197,19.9994,0.000477856,143.567,0.000119464,35.8918,""
54013,24.2853,20.0002,0.000477029,143.675,0.000119257,35.9188,""
54404.1,24.306,20.0006,0.00047596,143.861,0.00011899,35.9653,""
54720.3,24.3553,19.9996,0.000474175,144.011,0.000118544,36.0029,""
55031.7,24.3441,19.9999,0.000473575,144.159,0.000118394,36.0398,""
55397.2,24.3006,19.9999,0.000472094,144.332,0.000118024,36.0829,""
55624.3,24.2973,19.9998,0.000470966,144.439,0.000117741,36.1097,""
55968.5,24.3126,20.0002,0.00046979,144.601,0.000117448,36.1502,""
56284.2,24.3113,19.9999,0.000468847,144.749,0.000117212,36.1873,""
56762.6,24.3149,19.9999,0.000467405,144.973,0.000116851,36.2432,""
57143.4,24.3187,20,0.000465871,145.151,0.000116468,36.2877,""
57540.7,24.3146,19.9996,0.000464819,145.336,0.000116205,36.3339,""
57831.5,24.3053,20.0001,0.000463902,145.471,0.000115975,36.3676,""
58113.6,24.2943,19.9998,0.00046297,145.601,0.000115742,36.4003,""
58406.2,24.3118,19.9999,0.000461919,145.737,0.00011548,36.4341,""
58816.6,24.3275,19.9999,0.000460227,145.926,0.000115057,36.4815,""
59121.2,24.251,19.9999,0.00046022,146.066,0.000115055,36.5165,""
59530.5,24.3054,19.9996,0.00045849,146.254,0.000114622,36.5635,""
59791.2,24.3271,19.9995,0.000457535,146.373,0.000114384,36.5933,""
60136.3,24.3103,20.0001,0.000456782,146.531,0.000114195,36.6328,""
60479.9,24.2905,19.9998,0.00045586,146.688,0.000113965,36.672,""
60924.1,24.2561,19.9999,0.000454241,146.89,0.00011356,36.7225,""
61283.4,24.3194,19.9999,0.000453394,147.053,0.000113349,36.7633,""
61653,24.2834,20,0.000452501,147.221,0.000113125,36.8052,""
61893,24.2774,19.9999,0.000451842,147.329,0.000112961,36.8323,""
62214,24.2886,19.9999,0.000450837,147.474,0.000112709,36.8685,""
62519.3,24.2676,19.9997,0.000449484,147.611,0.000112371,36.9029,""
62888.1,24.2876,19.9999,0.00044863,147.777,0.000112157,36.9443,""
63195.2,24.2905,19.9999,0.000448251,147.915,0.000112063,36.9787,""
63578.1,24.2714,20,0.00044703,148.086,0.000111758,37.0215,""
63876.6,24.2918,19.9994,0.000446241,148.219,0.00011156,37.0549,""
64188,24.3041,19.9997,0.000445451,148.358,0.000111363,37.0896,""
64507.7,24.2718,20.0002,0.000444542,148.5,0.000111135,37.1251,""
64910.5,24.2944,19.9997,0.000443527,148.679,0.000110882,37.1698,""
65335.3,24.2627,20.0003,0.000442352,148.867,0.000110588,37.2168,""
65651.6,24.2722,20.0009,0.00044118,149.007,0.000110295,37.2518,""
65983.6,24.2954,20.0001,0.000440783,149.154,0.000110196,37.2884,""
66293.7,24.2859,19.9996,0.000440067,149.29,0.000110017,37.3226,""
66659.5,24.2677,19.9999,0.000438763,149.451,0.000109691,37.3627,""
66979.2,24.3303,19.9997,0.000437936,149.591,0.000109484,37.3978,""
67370.9,24.2935,19.9999,0.000436812,149.762,0.000109203,37.4406,""
67763.8,24.2666,19.9999,0.000435392,149.934,0.000108848,37.4834,""
68190.7,24.2429,19.9993,0.000434578,150.119,0.000108644,37.5298,""
68471.1,24.2282,19.9995,0.000434069,150.241,0.000108517,37.5603,""
68810.5,24.2754,19.9999,0.000432824,150.388,0.000108206,37.597,""
69102.3,24.2836,20.0001,0.000432475,150.514,0.000108119,37.6286,""
69495,24.2681,19.9997,0.000431522,150.684,0.000107881,37.671,""
69976.3,24.2755,19.9994,0.000430805,150.892,0.000107701,37.7229,""
70377.4,24.2566,19.9995,0.000429781,151.064,0.000107445,37.7661,""
70691.7,24.2549,20.0001,0.000429128,151.199,0.000107282,37.7998,""
71001.1,24.2542,19.9998,0.000428641,151.332,0.00010716,37.833,""
71407.4,24.2607,20,0.000427792,151.506,0.000106948,37.8765,""
71740.6,24.2815,19.9998,0.000427242,151.649,0.000106811,37.9121,""
72059.2,24.2726,20.0007,0.000426374,151.785,0.000106593,37.9462,""
72393.2,24.2345,20.0002,0.000425865,151.927,0.000106466,37.9817,""
72755.8,24.2884,20.0001,0.0004252,152.081,0.0001063,38.0203,""
73226.2,24.2871,20,0.000423845,152.281,0.000105961,38.0702,""
73610.1,24.2755,20,0.000422835,152.443,0.000105709,38.1109,""
73980.7,24.2795,19.999,0.000421927,152.6,0.000105482,38.15,""
74287.6,24.2609,19.9992,0.000421332,152.729,0.000105333,38.1823,""
74691,24.2374,19.9993,0.000420684,152.899,0.000105171,38.2248,""
74955.1,24.2644,19.9999,0.000420083,153.01,0.000105021,38.2526,""
75293,24.2609,19.9997,0.000419744,153.152,0.000104936,38.2881,""
75706.5,24.2639,19.9998,0.000419436,153.326,0.000104859,38.3314,""
76021.2,24.2742,20,0.000418634,153.458,0.000104658,38.3644,""
76299.7,24.2896,20,0.000418367,153.574,0.000104592,38.3935,""
76669.2,24.2752,20.0007,0.000418038,153.729,0.000104509,38.4321,""
77008.7,24.2681,19.9999,0.000417187,153.87,0.000104297,38.4676,""
77324.7,24.2923,19.9999,0.00041643,154.002,0.000104108,38.5005,""
77641.4,24.2902,19.9999,0.000415665,154.134,0.000103916,38.5334,""
78092.3,24.2795,20.0001,0.000414487,154.321,0.000103622,38.5802,""
78378.1,24.2881,19.9996,0.00041407,154.439,0.000103517,38.6098,""
78758.7,24.2775,20,0.000413469,154.597,0.000103367,38.6492,""
79086.8,24.259,19.9996,0.000412899,154.732,0.000103225,38.6831,""
79378.7,24.2792,19.9999,0.000412317,154.853,0.000103079,38.7132,""
79687.2,24.3003,19.9996,0.000411681,154.98,0.00010292,38.7449,""
80018.8,24.323,19.9997,0.000411125,155.116,0.000102781,38.7791,""
80288.4,24.2722,19.9997,0.000410716,155.227,0.000102679,38.8068,""
80677,24.298,20,0.000410617,155.387,0.000102654,38.8467,""
81029.7,24.2399,20,0.000410087,155.531,0.000102522,38.8828,""
81339,24.279,19.9995,0.000409627,155.658,0.000102407,38.9145,""
81695.7,24.2938,20.0003,0.000409175,155.804,0.000102294,38.951,""
82022.1,24.307,20,0.000408918,155.938,0.00010223,38.9844,""
82392,24.2889,19.9997,0.000408146,156.089,0.000102036,39.0222,""
82763.3,24.3086,20.0003,0.000407435,156.24,0.000101859,39.06,""
83107.5,24.2977,19.9995,0.000406994,156.38,0.000101748,39.0951,""
83559.2,24.3078,19.9998,0.000406491,156.564,0.000101623,39.141,""
83981.9,24.2772,19.9999,0.000406119,156.736,0.00010153,39.1839,""
84249.9,24.293,19.9999,0.000405861,156.845,0.000101465,39.2112,""
84716,24.3239,20.0002,0.000405338,157.034,0.000101334,39.2584,""
85103.7,24.2586,19.9996,0.000404769,157.191,0.000101192,39.2977,""
85398.2,24.3049,19.9999,0.000404638,157.31,0.000101159,39.3275,""
85778,24.2911,19.9997,0.000404026,157.463,0.000101007,39.3659,""
86071.2,24.2728,20.0003,0.000404128,157.582,0.000101032,39.3955,""
86349.1,24.2953,19.9999,0.000403511,157.694,0.000100878,39.4235,""
86674,24.3228,20.0001,0.000403318,157.825,0.000100829,39.4563,""
87023.1,24.2751,19.9999,0.000402603,157.966,0.000100651,39.4914,""
87510.4,24.2947,19.9999,0.000401717,158.162,0.000100429,39.5404,""
88005.9,24.2873,20,0.00040113,158.361,0.000100283,39.5902,""
88351.5,24.263,20,0.00040072,158.499,0.00010018,39.6248,""
88703,24.2696,19.9995,0.000400533,158.64,0.000100133,39.66,""
89001.8,24.2757,19.9999,0.000399658,158.759,9.99145e-05,39.6899,""
89312.6,24.3296,19.9999,0.000399415,158.884,9.98537e-05,39.7209,""
89585.3,24.2777,19.9993,0.000399285,158.993,9.98212e-05,39.7481,""
90086.9,24.2958,20.0001,0.000398631,159.193,9.96577e-05,39.7982,""
90454.1,24.3216,19.9996,0.000398043,159.339,9.95106e-05,39.8348,""
90786.9,24.3053,19.9998,0.000397848,159.471,9.9462e-05,39.8679,""
91077.9,24.2889,20,0.000397897,159.587,9.94742e-05,39.8968,""
91457.3,24.2628,19.9999,0.000397343,159.738,9.93357e-05,39.9345,""
91801.5,24.3307,19.9999,0.000396859,159.875,9.92148e-05,39.9687,""
92167.8,24.3204,20,0.000396344,160.02,9.9086e-05,40.005,""
92396.5,24.3098,19.9998,0.000396108,160.111,9.90269e-05,40.0276,""
92812.7,24.3157,19.9998,0.000395983,160.275,9.89959e-05,40.0689,""
93276,24.2992,19.9997,0.000395493,160.459,9.88732e-05,40.1147,""
93627.8,24.3006,19.9996,0.000395053,160.598,9.87633e-05,40.1494,""
93993,24.2849,20.0001,0.000394727,160.742,9.86818e-05,40.1855,""
94383.4,24.2574,19.9997,0.000394542,160.896,9.86356e-05,40.224,""
94674.4,24.3294,19.9997,0.000394686,161.011,9.86715e-05,40.2527,""
95020.2,24.299,20.0001,0.000394502,161.147,9.86254e-05,40.2868,""
95347.8,24.2766,19.9997,0.000394027,161.276,9.85068e-05,40.3191,""
95632.3,24.2718,19.9999,0.000393792,161.388,9.8448e-05,40.3471,""
96034.7,24.2922,19.9999,0.000393688,161.547,9.8422e-05,40.3867,""
96540.1,24.2724,20,0.000393551,161.746,9.83877e-05,40.4364,""
96860.3,24.2623,19.9997,0.000392884,161.872,9.8221e-05,40.4679,""
97159.6,24.2721,19.9996,0.000392918,161.989,9.82295e-05,40.4973,""
97522.2,24.344,19.9998,0.000392787,162.132,9.81967e-05,40.5329,""
97873.6,24.2857,20,0.000392507,162.27,9.81266e-05,40.5674,""
98206.3,24.2728,19.9999,0.000392184,162.4,9.80459e-05,40.6,""
98505,24.2743,19.9998,0.000391825,162.517,9.79563e-05,40.6293,""
98875.5,24.3371,19.9998,0.000391924,162.663,9.79809e-05,40.6656,""
99108.4,24.2981,19.9999,0.000391804,162.754,9.7951e-05,40.6885,""
99468.1,24.2778,20.0001,0.000391523,162.895,9.78807e-05,40.7237,""
99912.4,24.2736,19.9997,0.000391392,163.069,9.78481e-05,40.7672,""
100223,24.2918,20,0.000391138,163.19,9.77845e-05,40.7976,""
100608,24.265,19.9998,0.00039141,163.341,9.78526e-05,40.8353,""
100944,24.2881,20,0.000390803,163.472,9.77007e-05,40.8681,""
101319,24.2863,20.0002,0.000390505,163.619,9.76262e-05,40.9047,""
101803,24.2919,19.9996,0.000390241,163.808,9.75603e-05,40.9519,""
102166,24.3196,20,0.000390279,163.949,9.75697e-05,40.9873,""
102448,24.3225,19.9998,0.000389896,164.059,9.7474e-05,41.0149,""
102784,24.2796,19.9997,0.000389874,164.19,9.74686e-05,41.0476,""
103121,24.3284,20,0.000389797,164.322,9.74492e-05,41.0804,""
103453,24.2754,19.9999,0.000389811,164.451,9.74528e-05,41.1128,""
103892,24.3024,19.9996,0.000389549,164.622,9.73872e-05,41.1556,""
104232,24.3225,19.9994,0.000389496,164.755,9.73739e-05,41.1887,""
104558,24.3087,19.9997,0.000389699,164.882,9.74247e-05,41.2204,""
105020,24.2949,19.9998,0.000389471,165.061,9.73678e-05,41.2653,""
105377,24.3091,19.9997,0.000389374,165.201,9.73434e-05,41.3002,""
105702,24.2939,19.9999,0.000389189,165.327,9.72973e-05,41.3317,""
105990,24.2957,19.9996,0.000388981,165.439,9.72452e-05,41.3598,""
106462,24.3159,19.9998,0.000388787,165.623,9.71969e-05,41.4057,""
106791,24.2755,19.9998,0.000389166,165.751,9.72916e-05,41.4376,""
107149,24.2716,19.9999,0.000388798,165.89,9.71995e-05,41.4725,""
[...]
144467,24.301,19.9994,0.000415527,180.677,0.000103882,45.1692,""
144785,24.3184,19.9998,0.000415755,180.809,0.000103939,45.2022,""
145117,24.2791,20.0001,0.000416451,180.947,0.000104113,45.2368,""
145447,24.2897,20,0.000417099,181.085,0.000104275,45.2712,""
145803,24.2957,19.9993,0.000418042,181.234,0.000104511,45.3084,""
146230,24.3059,20,0.000418848,181.412,0.000104712,45.353,""
146684,24.4863,19.9995,0.000419365,181.602,0.000104841,45.4006,""
147047,24.2769,20.0003,0.000419946,181.755,0.000104986,45.4387,""
147434,24.3051,20.0001,0.000420367,181.918,0.000105092,45.4794,""
147845,24.2633,19.9998,0.000421292,182.09,0.000105323,45.5226,""
148368,24.2958,19.9998,0.00042249,182.311,0.000105622,45.5778,""
148984,24.2787,19.9998,0.000423542,182.572,0.000105885,45.6429,""
149326,24.2722,19.9994,0.000423824,182.716,0.000105956,45.6791,""
149851,24.2966,20,0.000424986,182.939,0.000106246,45.7348,""
150123,24.2933,19.9995,0.000425705,183.055,0.000106426,45.7637,""
150527,24.2891,20.0004,0.00042663,183.227,0.000106658,45.8068,""
150936,24.2534,20,0.00042735,183.402,0.000106837,45.8505,""
151286,24.2636,20,0.000428185,183.552,0.000107046,45.8879,""
151681,24.2833,19.9998,0.000428918,183.721,0.000107229,45.9302,""
152161,24.2813,19.9998,0.000430087,183.927,0.000107522,45.9817,""
152641,24.2595,20.0001,0.000431032,184.134,0.000107758,46.0334,""
152997,24.2229,19.9999,0.000431953,184.287,0.000107988,46.0718,""
153380,24.2701,20.0001,0.000432632,184.453,0.000108158,46.1132,""
153721,24.275,19.9999,0.000433336,184.6,0.000108334,46.1501,""
154095,24.2708,20,0.000434257,184.763,0.000108564,46.1906,""
154517,24.2592,19.9998,0.000435244,184.946,0.000108811,46.2366,""
154941,24.2567,19.9998,0.00043613,185.131,0.000109032,46.2827,""
155468,24.2401,20,0.000437425,185.361,0.000109356,46.3402,""
155822,24.2714,19.9999,0.000438252,185.516,0.000109563,46.379,""
156136,24.2506,19.9995,0.000438844,185.654,0.000109711,46.4134,""
156479,24.293,19.9994,0.000439764,185.804,0.000109941,46.4511,""
156901,24.2402,20,0.000440731,185.99,0.000110183,46.4976,""
157224,24.2975,19.9996,0.000441969,186.133,0.000110492,46.5332,""
157518,24.2908,19.9999,0.000442388,186.263,0.000110597,46.5657,""
157894,24.2746,19.9994,0.000443772,186.429,0.000110943,46.6074,""
158256,24.2847,19.9996,0.000444605,186.59,0.000111151,46.6475,""
158554,24.2849,19.9999,0.000445373,186.723,0.000111343,46.6807,""
158911,24.3116,20.0002,0.000446315,186.882,0.000111579,46.7205,""
159367,24.3203,19.9998,0.000447921,187.086,0.00011198,46.7714,""
159894,24.3153,19.9997,0.000449317,187.322,0.000112329,46.8305,""
160181,24.3213,20,0.00044991,187.451,0.000112477,46.8627,""
160551,24.2988,19.9999,0.000451048,187.618,0.000112762,46.9044,""
161039,24.3808,19.9998,0.000452504,187.838,0.000113126,46.9596,""
161360,24.4743,20.0001,0.000453283,187.983,0.000113321,46.9959,""
161691,24.4689,20.0002,0.000454601,188.134,0.00011365,47.0335,""
162034,24.4529,19.9999,0.000455474,188.29,0.000113868,47.0726,""
162360,24.4501,20,0.00045649,188.439,0.000114122,47.1097,""
162783,24.3968,19.9995,0.000458155,188.632,0.000114539,47.1581,""
163257,24.4066,19.9999,0.000459701,188.85,0.000114925,47.2125,""
163750,24.416,19.9996,0.000461244,189.077,0.000115311,47.2693,""
164258,24.4105,19.9998,0.000463384,189.312,0.000115846,47.328,""
164766,24.4315,19.9998,0.000465141,189.548,0.000116285,47.3869,""
165132,24.4236,19.9998,0.000466378,189.718,0.000116595,47.4296,""
165599,24.449,20.0001,0.000468062,189.937,0.000117016,47.4841,""
165943,24.4148,19.9998,0.000469284,190.098,0.000117321,47.5244,""
166242,24.4621,20,0.000470653,190.238,0.000117663,47.5595,""
166739,24.3737,19.9998,0.000472253,190.472,0.000118063,47.6181,""
167105,24.4733,19.9998,0.000473469,190.645,0.000118367,47.6613,""
167530,24.4146,19.9997,0.000475502,190.847,0.000118875,47.7118,""
167998,24.4649,19.9998,0.000477065,191.07,0.000119266,47.7675,""
168463,24.4146,20.0001,0.000478812,191.293,0.000119703,47.8232,""
168926,24.4025,20.0001,0.000480366,191.515,0.000120091,47.8786,""
169279,24.4197,20,0.000481597,191.684,0.000120399,47.9211,""
169638,24.4475,20,0.000483345,191.858,0.000120836,47.9644,""
169901,24.4587,19.9999,0.000484393,191.985,0.000121098,47.9962,""
170226,24.4601,20.0001,0.000485774,192.142,0.000121443,48.0356,""
170673,24.4332,19.9997,0.000487903,192.36,0.000121976,48.09,""
171154,24.4754,19.9999,0.000489974,192.595,0.000122494,48.1487,""
171875,24.4595,19.9999,0.000492864,192.949,0.000123216,48.2373,""
172319,24.5016,19.9997,0.000494743,193.168,0.000123686,48.2921,""
172694,24.4725,20.0003,0.000495889,193.354,0.000123972,48.3385,""
173128,24.5121,20.0001,0.000498115,193.57,0.000124529,48.3925,""
173451,24.5107,19.9997,0.000499404,193.731,0.000124851,48.4327,""
173882,24.4765,19.9996,0.000501744,193.947,0.000125436,48.4867,""
174410,24.472,19.9995,0.0005038,194.212,0.00012595,48.553,""
174818,24.5176,19.9997,0.000505644,194.418,0.000126411,48.6045,""
175121,24.5117,19.9997,0.000507416,194.572,0.000126854,48.6429,""
175554,24.5117,19.9997,0.000509507,194.792,0.000127377,48.698,""
176144,24.4976,20.0001,0.000512313,195.093,0.000128078,48.7733,""
176528,24.5111,20.0001,0.000514142,195.29,0.000128536,48.8226,""
177103,24.4902,19.9997,0.000516652,195.587,0.000129163,48.8967,""
177464,24.5038,20.0001,0.000519074,195.774,0.000129768,48.9434,""
178013,24.5176,19.9998,0.000521691,196.059,0.000130423,49.0148,""
178477,24.5011,19.9999,0.000524464,196.302,0.000131116,49.0755,""
178768,24.472,19.9997,0.000525664,196.455,0.000131416,49.1137,""
179134,24.5498,20.0001,0.000527744,196.648,0.000131936,49.1619,""
179668,24.5164,19.9997,0.000530144,196.93,0.000132536,49.2325,""
180223,24.521,19.9999,0.000532916,197.225,0.000133229,49.3063,""
180579,24.547,19.9993,0.000535217,197.415,0.000133804,49.3539,""
180953,24.5628,19.9994,0.000537198,197.616,0.000134299,49.4039,""
181332,24.5278,20,0.000539488,197.82,0.000134872,49.4549,""
181978,24.5608,19.9997,0.000543778,198.17,0.000135945,49.5425,""
182330,24.5397,19.9999,0.000545965,198.362,0.000136491,49.5904,""
182726,24.5896,19.9995,0.0005487,198.578,0.000137175,49.6446,""
183133,24.5492,20,0.000550927,198.802,0.000137732,49.7005,""
183518,24.5388,19.9998,0.000553126,199.015,0.000138282,49.7537,""
183921,24.687,20,0.000555861,199.238,0.000138965,49.8095,""
184289,24.5816,19.9997,0.0005581,199.443,0.000139525,49.8608,""
184620,24.5856,20.0001,0.000560212,199.628,0.000140053,49.907,""
185185,24.5451,19.9998,0.00056398,199.946,0.000140995,49.9864,""
185576,24.5445,19.9999,0.000566817,200.167,0.000141704,50.0417,""
185940,24.5565,19.9999,0.000569485,200.374,0.000142371,50.0934,""
186355,24.5726,19.9999,0.000572099,200.61,0.000143025,50.1526,""
186820,24.5878,20.0001,0.000575395,200.877,0.000143849,50.2192,""
187145,24.5673,19.9994,0.000577954,201.065,0.000144489,50.2662,""
187546,24.5841,20.0001,0.00058066,201.297,0.000145165,50.3243,""
187957,24.5846,19.9999,0.000583633,201.536,0.000145908,50.3841,""
188274,24.561,20.0001,0.000585812,201.722,0.000146453,50.4304,""
188593,24.6207,19.9997,0.000588414,201.909,0.000147103,50.4772,""
189067,24.6019,19.9997,0.000592353,202.189,0.000148088,50.5471,""
189504,24.6005,19.9997,0.000595121,202.448,0.00014878,50.6121,""
190035,24.6393,19.9997,0.000599941,202.765,0.000149985,50.6913,""
190426,24.6044,20.0001,0.000603095,203,0.000150774,50.75,""
190855,24.6059,19.9999,0.000606749,203.26,0.000151687,50.815,""
191230,24.6324,20.0001,0.00060985,203.488,0.000152462,50.872,""
191769,24.6519,19.9997,0.000614555,203.818,0.000153639,50.9545,""
192139,24.6277,19.9999,0.000617828,204.046,0.000154457,51.0114,""
192489,24.6198,19.9998,0.000620631,204.263,0.000155158,51.0656,""
192790,24.6289,19.9998,0.000623224,204.45,0.000155806,51.1124,""
193204,24.6164,20.0001,0.00062728,204.709,0.00015682,51.1772,""
193643,24.6349,19.9998,0.000631375,204.985,0.000157844,51.2462,""
194025,24.6352,20.0001,0.000634537,205.227,0.000158634,51.3067,""
194404,24.6124,19.9997,0.000638077,205.468,0.000159519,51.367,""
194741,24.6526,20,0.000641552,205.683,0.000160388,51.4208,""
195160,24.6244,19.9998,0.000645254,205.953,0.000161314,51.4882,""
195453,24.6523,19.9999,0.0006483,206.143,0.000162075,51.5357,""
195718,24.6402,19.9999,0.000650613,206.314,0.000162653,51.5786,""
196230,24.6262,20,0.000655928,206.649,0.000163982,51.6622,""
196535,24.5872,19.9995,0.000659021,206.85,0.000164755,51.7124,""
196857,24.647,19.9998,0.000662629,207.062,0.000165657,51.7656,""
197386,24.584,19.9998,0.000668097,207.415,0.000167024,51.8537,""
197767,24.6014,20,0.000672023,207.67,0.000168006,51.9174,""
198220,24.5879,20.0001,0.000676973,207.975,0.000169243,51.9938,""
198646,24.5449,19.9998,0.000681979,208.265,0.000170495,52.0663,""
199081,24.5792,19.9997,0.00068682,208.562,0.000171705,52.1406,""
199500,24.5288,19.9999,0.000691441,208.851,0.00017286,52.2128,""
199933,24.5508,20.0001,0.000696158,209.152,0.000174039,52.288,""
200301,24.5478,19.9998,0.00070054,209.408,0.000175135,52.3521,""
200668,24.5974,19.9999,0.000704917,209.666,0.000176229,52.4166,""
200989,24.54,20,0.000708816,209.894,0.000177204,52.4735,""
201451,24.577,20,0.000714641,210.222,0.00017866,52.5555,""
201909,24.4908,19.9997,0.00072028,210.551,0.00018007,52.6376,""
202288,24.6004,20.0003,0.000725181,210.825,0.000181295,52.7062,""
202649,24.5286,19.9999,0.000729869,211.088,0.000182467,52.7719,""
203147,24.5492,20,0.000736217,211.452,0.000184054,52.8631,""
203500,24.5339,19.9998,0.000741166,211.713,0.000185292,52.9282,""
203799,24.5396,20.0001,0.000745018,211.935,0.000186254,52.9838,""
204159,24.5421,19.9998,0.000749899,212.205,0.000187475,53.0511,""
204562,24.5342,19.9998,0.000755518,212.508,0.00018888,53.127,""
204920,24.5194,20,0.000760626,212.779,0.000190156,53.1948,""
205527,24.5265,19.9997,0.000769459,213.244,0.000192365,53.3109,""
205924,24.5335,20.0001,0.000775149,213.551,0.000193787,53.3877,""
206334,24.5148,19.9992,0.000781582,213.869,0.000195395,53.4673,""
206876,24.5153,20,0.000789928,214.296,0.000197482,53.5739,""
207266,24.4912,19.9995,0.000795865,214.604,0.000198966,53.6511,""
207822,24.4873,20.0001,0.000804516,215.05,0.000201129,53.7624,""
208107,24.4778,19.9997,0.000809259,215.28,0.000202315,53.8199,""
208488,24.4862,19.9998,0.000815283,215.589,0.000203821,53.8972,""
208976,24.4927,19.9998,0.000823562,215.989,0.000205891,53.9971,""
209383,24.429,20.0001,0.000830482,216.326,0.00020762,54.0814,""
209806,24.4639,19.9999,0.000837988,216.679,0.000209497,54.1696,""
210189,24.4286,19.9994,0.000844691,217,0.000211173,54.25,""
210559,24.4449,19.9998,0.000850849,217.315,0.000212712,54.3287,""
210891,24.483,20.0003,0.000856857,217.598,0.000214214,54.3995,""
211141,24.4655,20.0001,0.000861567,217.813,0.000215392,54.4532,""
211585,24.4671,19.9998,0.000869675,218.197,0.000217419,54.5493,""
211873,24.4344,19.9999,0.00087468,218.448,0.00021867,54.612,""
212199,24.4695,19.9999,0.000881257,218.734,0.000220314,54.6836,""
212559,24.4683,19.9993,0.000887959,219.053,0.00022199,54.7631,""
212850,24.4531,20,0.00089377,219.312,0.000223443,54.828,""
213292,24.4569,19.9997,0.000902214,219.709,0.000225554,54.9273,""
213705,24.4207,19.9995,0.000910902,220.084,0.000227725,55.021,""
214167,24.4459,20,0.000920235,220.507,0.000230059,55.1267,""
214577,24.4074,19.9999,0.000928893,220.885,0.000232223,55.2213,""
214909,24.4518,20,0.000935775,221.195,0.000233944,55.2988,""
215434,24.4546,20,0.000946916,221.689,0.000236729,55.4223,""
215783,24.4523,19.9999,0.000954631,222.021,0.000238658,55.5052,""
216264,24.4681,19.9998,0.00096525,222.482,0.000241312,55.6206,""
216628,24.4181,20.0003,0.000973205,222.835,0.000243301,55.7089,""
216982,24.4459,20,0.000981305,223.181,0.000245326,55.7953,""
217598,24.4718,19.9999,0.000995654,223.791,0.000248914,55.9477,""
218098,24.4933,20.0001,0.00100725,224.291,0.000251811,56.0728,""
218518,24.4151,19.9999,0.00101736,224.717,0.000254341,56.1792,""
218860,24.4414,20.0002,0.00102564,225.066,0.000256411,56.2665,""
219272,24.4161,19.9997,0.00103594,225.491,0.000258985,56.3727,""
219676,24.4663,19.9998,0.00104621,225.911,0.000261553,56.4778,""
220035,24.4332,19.9997,0.00105541,226.288,0.000263852,56.572,""
220499,24.4284,19.9999,0.00106736,226.781,0.000266839,56.6953,""
220872,24.4411,20.0001,0.00107687,227.18,0.000269219,56.7951,""
221239,24.4288,19.9996,0.00108648,227.578,0.000271619,56.8945,""
221533,24.4084,20,0.00109425,227.898,0.000273563,56.9746,""
222057,24.4232,19.9997,0.00110872,228.476,0.00027718,57.1189,""
222377,24.4355,20.0002,0.00111739,228.832,0.000279348,57.208,""
222738,24.4582,20,0.00112753,229.237,0.000281882,57.3093,""
223126,24.449,19.9993,0.00113847,229.676,0.000284618,57.419,""
223442,24.4482,20,0.00114746,230.037,0.000286865,57.5093,""
223726,24.4191,20.0003,0.00115562,230.365,0.000288905,57.5913,""
224158,24.4138,19.9999,0.00116829,230.867,0.000292073,57.7167,""
224636,24.4355,19.9999,0.00118219,231.429,0.000295549,57.8572,""
224971,24.4728,19.9996,0.00119248,231.826,0.000298119,57.9566,""
225327,24.4232,20.0001,0.00120311,232.253,0.000300779,58.0632,""
225747,24.4197,19.9999,0.00121578,232.76,0.000303945,58.19,""
226125,24.4128,19.9997,0.00122718,233.222,0.000306796,58.3056,""
226533,24.4221,19.9999,0.00124044,233.726,0.00031011,58.4316,""
226873,24.3619,19.9999,0.00125114,234.15,0.000312784,58.5374,""
227323,24.4093,20,0.00126563,234.716,0.000316407,58.679,""
227681,24.423,19.9999,0.00127731,235.17,0.000319328,58.7926,""
228094,24.4154,19.9997,0.00129102,235.702,0.000322756,58.9255,""
228673,24.4006,19.9995,0.00131043,236.455,0.000327607,59.1137,""
229103,24.3728,19.9998,0.00132493,237.021,0.000331231,59.2551,""
229541,24.415,20,0.00134018,237.604,0.000335044,59.401,""
229986,24.4022,20,0.00135559,238.205,0.000338898,59.5512,""
230342,24.3907,19.9996,0.00136857,238.689,0.000342142,59.6723,""
230701,24.377,19.9999,0.00138118,239.184,0.000345295,59.7959,""
231036,24.3884,20,0.00139328,239.648,0.00034832,59.9121,""
231444,24.3803,19.9996,0.00140815,240.219,0.000352037,60.0547,""
231922,24.371,20.0003,0.00142561,240.896,0.000356403,60.2241,""
232280,24.3285,20,0.00143937,241.409,0.000359843,60.3523,""
232609,24.3652,19.9995,0.00145184,241.885,0.000362959,60.4712,""
232954,24.3669,20,0.00146515,242.389,0.000366288,60.5972,""
233347,24.3903,19.9995,0.0014803,242.967,0.000370075,60.7416,""
233756,24.3528,20.0006,0.00149622,243.576,0.000374055,60.894,""
234092,24.3815,20.0002,0.00150933,244.081,0.000377333,61.0202,""
234633,24.3653,20,0.00153069,244.903,0.000382672,61.2257,""
234922,24.3671,19.9998,0.00154189,245.346,0.000385473,61.3366,""
235381,24.3686,19.9998,0.0015606,246.059,0.000390151,61.5148,""
235776,24.3553,19.9999,0.00157667,246.679,0.000394168,61.6697,""
236201,24.3413,19.9997,0.00159414,247.353,0.000398536,61.8382,""
236538,24.3497,19.9999,0.00160843,247.892,0.000402108,61.9729,""
236951,24.3642,19.9995,0.00162603,248.56,0.000406507,62.1401,""
237418,24.3826,19.9997,0.00164554,249.323,0.000411385,62.3309,""
237778,24.3758,20,0.0016613,249.918,0.000415324,62.4796,""
238166,24.3501,20.0006,0.00167772,250.567,0.000419429,62.6417,""
238502,24.3818,19.9999,0.00169246,251.132,0.000423114,62.7831,""
239164,24.3623,19.9998,0.00172178,252.262,0.000430445,63.0656,""
239576,24.3596,19.9993,0.00174027,252.977,0.000435067,63.2441,""
240048,24.3448,19.9997,0.00176156,253.803,0.00044039,63.4507,""
240387,24.3647,20,0.00177722,254.403,0.000444305,63.6008,""
240698,24.3476,19.9998,0.00179121,254.958,0.000447803,63.7394,""
241062,24.3591,19.9998,0.00180831,255.612,0.000452077,63.9031,""
241405,24.3387,19.9998,0.00182405,256.236,0.000456013,64.059,""
241893,24.3216,20.0003,0.00184714,257.131,0.000461784,64.2828,""
242242,24.375,19.9999,0.00186375,257.779,0.000465938,64.4448,""
242634,24.329,19.9999,0.00188234,258.513,0.000470585,64.6283,""
243073,24.3661,19.9996,0.00190384,259.345,0.00047596,64.8362,""
243516,24.366,19.9999,0.00192491,260.192,0.000481228,65.048,""
243831,24.3474,19.9999,0.00194032,260.801,0.000485081,65.2003,""
244272,24.3866,19.9997,0.00196214,261.662,0.000490535,65.4156,""
244678,24.3703,19.9995,0.00198232,262.462,0.00049558,65.6155,""
244990,24.4056,19.9997,0.00199817,263.084,0.000499542,65.771,""
245304,24.4032,20,0.00201391,263.713,0.000503477,65.9282,""
245668,24.4154,19.9998,0.00203231,264.45,0.000508078,66.1124,""
246115,24.3842,19.9998,0.00205498,265.364,0.000513745,66.3409,""
246479,24.3785,19.9997,0.00207348,266.114,0.000518369,66.5285,""
246966,24.4042,20.0001,0.00209879,267.13,0.000524697,66.7825,""
247303,24.4036,19.9996,0.00211588,267.841,0.00052897,66.9601,""
247716,24.4566,19.9998,0.00213744,268.718,0.00053436,67.1796,""
248140,24.3525,19.9999,0.00215958,269.63,0.000539894,67.4074,""
248595,24.4326,19.9998,0.00218312,270.618,0.000545781,67.6546,""
248986,24.4618,19.9994,0.00220398,271.474,0.000550995,67.8686,""
249440,24.4444,20.0001,0.00222787,272.481,0.000556968,68.1203,""
249773,24.4821,19.9999,0.00224632,273.227,0.000561581,68.3069,""
250218,24.467,19.9995,0.00226967,274.232,0.000567417,68.558,""
250587,24.4807,19.9995,0.00228995,275.072,0.000572487,68.768,""
250966,24.49,19.9994,0.00231033,275.945,0.000577583,68.9863,""
251417,24.4973,19.9996,0.00233491,276.993,0.000583727,69.2482,""
251870,24.5001,19.9996,0.00235966,278.055,0.000589916,69.5138,""
252249,24.5252,20,0.00238022,278.952,0.000595054,69.7381,""
252608,24.5275,19.9996,0.00240053,279.812,0.000600132,69.953,""
252947,24.5186,19.9999,0.00241885,280.629,0.000604713,70.1571,""
253395,24.5352,19.9999,0.00244372,281.718,0.000610931,70.4294,""
253818,24.546,20,0.00246727,282.755,0.000616817,70.6888,""
254105,24.551,19.9999,0.00248299,283.466,0.000620747,70.8666,""
254509,24.5288,20,0.00250615,284.474,0.000626538,71.1184,""
254904,24.5278,19.9998,0.00252833,285.467,0.000632083,71.3668,""
255261,24.5091,19.9998,0.00254817,286.376,0.000637042,71.594,""
255680,24.5849,19.9999,0.00257193,287.449,0.000642984,71.8623,""
256087,24.5673,20.0002,0.00259492,288.5,0.000648731,72.125,""
256500,24.5858,20,0.00261872,289.576,0.00065468,72.394,""
256900,24.5118,19.9998,0.00264147,290.628,0.000660368,72.657,""
257303,24.6861,20.0002,0.0026646,291.697,0.00066615,72.9242,""
257614,24.6233,19.9997,0.00268245,292.529,0.000670612,73.1322,""
258050,24.5836,19.9997,0.00270764,293.703,0.000676911,73.4258,""
258518,24.5766,20,0.0027346,294.976,0.00068365,73.7441,""
258839,24.6183,19.9995,0.00275313,295.857,0.000688282,73.9642,""
259104,24.5893,19.9997,0.00276817,296.59,0.000692042,74.1474,""
259550,24.6033,19.9998,0.00279431,297.83,0.000698577,74.4575,""
260032,24.5822,20.0001,0.00282256,299.182,0.00070564,74.7955,""
260406,24.6099,19.9995,0.00284417,300.242,0.000711042,75.0605,""
260888,24.6016,19.9998,0.0028724,301.619,0.000718101,75.4048,""
261232,24.7106,19.9996,0.00289288,302.612,0.00072322,75.6531,""
261721,24.7177,20.0003,0.00292223,304.034,0.000730559,76.0086,""
262102,24.6525,20.0002,0.00294424,305.152,0.00073606,76.2881,""
262441,24.6604,20.0001,0.00296435,306.153,0.000741089,76.5383,""
262799,24.6469,19.9999,0.00298617,307.219,0.000746542,76.8047,""
263255,24.6547,19.9997,0.00301307,308.586,0.000753268,77.1464,""
263687,24.6533,19.9999,0.00303938,309.893,0.000759845,77.4732,""
264250,24.67,19.9997,0.00307403,311.613,0.000768508,77.9032,""
264586,24.7619,20.0002,0.0030948,312.651,0.000773701,78.1626,""
264883,24.7753,19.9999,0.00311311,313.572,0.000778276,78.3931,""
265311,24.7395,20.0001,0.00313973,314.91,0.000784932,78.7276,""
265666,24.727,19.9998,0.00316186,316.029,0.000790464,79.0071,""
266046,24.7791,20.0001,0.00318607,317.234,0.000796519,79.3085,""
266595,24.7941,19.9999,0.00322142,318.995,0.000805355,79.7486,""
267000,24.7758,20,0.00324777,320.303,0.000811941,80.0757,""
267349,24.8008,20.0002,0.00327106,321.44,0.000817765,80.36,""
267711,24.8427,20,0.00329458,322.629,0.000823644,80.6573,""
268117,24.8232,20.0001,0.0033217,323.971,0.000830425,80.9928,""
268561,24.9145,19.9999,0.0033511,325.453,0.000837776,81.3632,""
268951,24.9797,20,0.00337716,326.765,0.00084429,81.6912,""
268951,24.9798,20,NaN,NaN,NaN,NaN,"Ampoule removed"
268953,24.98,20,NaN,NaN,NaN,NaN,""