File: TAInstCalorimetry/DATA/myexp10.csv
Summary
,Component - OPC
Mass,4g
Name,"OPC"
ID,"Bernburg CEM I 42.5R 29.09.21"

"Time","Temperature [AmbientT(Therm3T)]","Temperature [Temperature]","Heat flow [Signal]","Heat [Signal]","Normalized heat flow [Signal]","Normalized heat [Signal]","Time markers"
-1883.05,24.5456,20,NaN,NaN,NaN,NaN,""
-1882.05,24.545,20,1.43069e-06,NaN,3.57673e-07,NaN,""
-1863.3,24.5329,20,1.3348e-06,NaN,3.337e-07,NaN,""
-1852.1,24.5661,19.9999,1.26242e-06,NaN,3.15605e-07,NaN,""
-1840.37,24.6008,19.9999,1.17901e-06,NaN,2.94753e-07,NaN,""
-1816.52,24.5518,19.9999,1.00946e-06,NaN,2.52365e-07,NaN,""
-1801.72,24.5438,19.9999,6.37132e-07,NaN,1.59283e-07,NaN,""
-1778.02,24.5537,20,4.08311e-08,NaN,1.02078e-08,NaN,""
-1763.41,24.5598,20,2.5859e-07,NaN,6.46475e-08,NaN,""
-1742.93,24.5684,20.0001,2.15583e-07,NaN,5.38957e-08,NaN,""
-1724.54,24.5691,20.0001,1.70784e-07,NaN,4.26959e-08,NaN,""
-1674.38,24.5711,20,-8.29417e-08,NaN,-2.07354e-08,NaN,""
-1654.04,24.5719,20,1.69346e-07,NaN,4.23364e-08,NaN,""
-1641.66,24.5724,20.0002,3.22853e-07,NaN,8.07133e-08,NaN,""
-1632.68,24.5728,20.0003,2.99157e-07,NaN,7.47894e-08,NaN,""
-1597.39,24.5742,20.0001,2.06002e-07,NaN,5.15005e-08,NaN,""
-1572.37,24.5533,20,-1.3887e-07,NaN,-3.47176e-08,NaN,""
-1558.2,24.5414,20,-2.98261e-07,NaN,-7.45652e-08,NaN,""
-1544.42,24.53,19.9999,-3.08065e-07,NaN,-7.70162e-08,NaN,""
-1530.64,24.5545,19.9999,-3.87086e-07,NaN,-9.67714e-08,NaN,""
-1506.95,24.5967,19.9998,-7.27078e-07,NaN,-1.81769e-07,NaN,""
-1484.11,24.5803,19.9998,-1.05472e-06,NaN,-2.63679e-07,NaN,""
-1465.9,24.5686,19.9997,-9.33178e-07,NaN,-2.33295e-07,NaN,""
-1447.68,24.5675,19.9997,-8.11639e-07,NaN,-2.0291e-07,NaN,""
-1444.22,24.5673,19.9997,-8.61714e-07,NaN,-2.15429e-07,NaN,""
-1433.8,24.5668,19.9998,-1.01239e-06,NaN,-2.53098e-07,NaN,""
-1407.74,24.5653,20,-5.8626e-07,NaN,-1.46565e-07,NaN,""
-1388.37,24.5642,20.0001,-4.39495e-07,NaN,-1.09874e-07,NaN,""
-1359.35,24.5626,20.0002,-2.19644e-07,NaN,-5.4911e-08,NaN,""
-1344.73,24.5728,19.9998,-5.1688e-08,NaN,-1.2922e-08,NaN,""
-1330.1,24.584,19.9995,1.95601e-07,NaN,4.89002e-08,NaN,""
-1312.7,24.5974,19.9996,4.25892e-07,NaN,1.06473e-07,NaN,""
-1299.15,24.5981,19.9996,3.96052e-07,NaN,9.90129e-08,NaN,""
-1285.6,24.5824,19.9996,3.56927e-07,NaN,8.92317e-08,NaN,""
-1271.02,24.5853,19.9997,2.844e-07,NaN,7.10999e-08,NaN,""
-1262.8,24.6166,19.9998,2.43494e-07,NaN,6.08734e-08,NaN,""
-1240.92,24.5875,20.0002,1.34599e-07,NaN,3.36498e-08,NaN,""
-1227.69,24.5341,20.0004,3.84906e-07,NaN,9.62266e-08,NaN,""
-1222.55,24.5322,20.0004,4.82338e-07,NaN,1.20585e-07,NaN,""
-1210.43,24.5564,20.0003,6.70848e-07,NaN,1.67712e-07,NaN,""
-1198.31,24.5735,20.0003,6.3537e-07,NaN,1.58843e-07,NaN,""
-1183.83,24.5733,20.0001,5.92961e-07,NaN,1.4824e-07,NaN,""
-1183.33,24.5733,20.0001,5.91497e-07,NaN,1.47874e-07,NaN,""
-1173.1,24.5732,19.9999,8.76945e-07,NaN,2.19236e-07,NaN,""
-1167.45,24.5731,19.9999,8.96086e-07,NaN,2.24022e-07,NaN,""
-1154.38,24.573,19.9999,8.64796e-07,NaN,2.16199e-07,NaN,""
-1141.31,24.5898,19.9999,6.43206e-07,NaN,1.60801e-07,NaN,""
-1129.05,24.6056,20,1.03896e-07,NaN,2.5974e-08,NaN,""
-1123.16,24.6132,20,7.08971e-08,NaN,1.77243e-08,NaN,""
-1117.57,24.5912,20,3.75111e-08,NaN,9.37777e-09,NaN,""
-1106.6,24.5479,20,-9.89836e-08,NaN,-2.47459e-08,NaN,""
-1094.45,24.5668,20.0001,-2.5011e-07,NaN,-6.25274e-08,NaN,""
-1082.31,24.5857,20.0001,-2.26559e-07,NaN,-5.66398e-08,NaN,""
-1067.75,24.5836,20.0002,-1.8224e-07,NaN,-4.55599e-08,NaN,""
-1049.22,24.5655,19.9999,-1.48413e-07,NaN,-3.71032e-08,NaN,""
-1036.23,24.5544,19.9997,-1.59995e-07,NaN,-3.99989e-08,NaN,""
-1003.49,24.5788,19.9998,-1.89186e-07,NaN,-4.72964e-08,NaN,""
-984.775,24.5926,19.9999,-6.05134e-08,NaN,-1.51284e-08,NaN,""
-966.062,24.5931,20.0001,6.81589e-08,NaN,1.70397e-08,NaN,""
-951.71,24.5935,20.0002,-8.29216e-08,NaN,-2.07304e-08,NaN,""
-922.754,24.5942,20.0003,-3.8773e-07,NaN,-9.69325e-08,NaN,""
-912.671,24.5945,20.0001,-4.93876e-07,NaN,-1.23469e-07,NaN,""
-902.136,24.6139,19.9999,-4.87084e-07,NaN,-1.21771e-07,NaN,""
-891.601,24.6333,19.9997,-4.72802e-07,NaN,-1.18201e-07,NaN,""
-886.054,24.548,19.9998,-4.65282e-07,NaN,-1.16321e-07,NaN,""
-867.609,24.5762,20,-4.40276e-07,NaN,-1.10069e-07,NaN,""
-849.849,24.5788,20.0001,-4.16198e-07,NaN,-1.0405e-07,NaN,""
-832.089,24.5814,20,-3.92121e-07,NaN,-9.80303e-08,NaN,""
-826.429,24.5552,20,-3.84448e-07,NaN,-9.6112e-08,NaN,""
-818.054,24.5164,19.9999,-7.44313e-08,NaN,-1.86078e-08,NaN,""
-812.398,24.5335,19.9999,-2.20931e-08,NaN,-5.52327e-09,NaN,""
-802.522,24.5634,19.9998,-2.26954e-07,NaN,-5.67386e-08,NaN,""
-792.647,24.5739,19.9997,-4.31816e-07,NaN,-1.07954e-07,NaN,""
-777.647,24.5679,19.9995,-6.00936e-07,NaN,-1.50234e-07,NaN,""
-765.78,24.5631,19.9996,-6.21444e-07,NaN,-1.55361e-07,NaN,""
-753.913,24.5751,19.9998,-5.90455e-07,NaN,-1.47614e-07,NaN,""
-736.962,24.6013,20,-5.02888e-07,NaN,-1.25722e-07,NaN,""
-721.581,24.6092,20,-4.23428e-07,NaN,-1.05857e-07,NaN,""
-706.199,24.5922,19.9999,-3.19886e-07,NaN,-7.99715e-08,NaN,""
-694.851,24.5796,19.9996,-2.26718e-07,NaN,-5.66795e-08,NaN,""
-675.117,24.5577,19.9996,-6.47e-08,NaN,-1.6175e-08,NaN,""
-664.216,24.5625,19.9996,-1.44518e-07,NaN,-3.61296e-08,NaN,""
-653.316,24.5715,19.9997,-2.24337e-07,NaN,-5.60842e-08,NaN,""
-626.523,24.5934,19.9999,2.81086e-07,NaN,7.02715e-08,NaN,""
-606.104,24.5985,20,3.04322e-07,NaN,7.60806e-08,NaN,""
-585.684,24.5958,19.9999,3.27559e-07,NaN,8.18897e-08,NaN,""
-570.1,24.5937,19.9999,8.8289e-08,NaN,2.20723e-08,NaN,""
-541.742,24.5898,20.0001,-3.47114e-07,NaN,-8.67785e-08,NaN,""
-531.488,24.5884,20,-1.78919e-07,NaN,-4.47298e-08,NaN,""
-521.234,24.587,19.9999,-1.07247e-08,NaN,-2.68118e-09,NaN,""
-507.632,24.5865,19.9997,-5.03801e-08,NaN,-1.2595e-08,NaN,""
-494.031,24.5862,19.9996,-9.00354e-08,NaN,-2.25088e-08,NaN,""
-472.21,24.5857,19.9996,1.45408e-07,NaN,3.63521e-08,NaN,""
-456.513,24.5853,19.9998,3.14784e-07,NaN,7.8696e-08,NaN,""
-444.708,24.5851,19.9999,2.32814e-07,NaN,5.82035e-08,NaN,""
-423.921,24.5846,19.9998,8.84714e-08,NaN,2.21178e-08,NaN,""
-411.462,24.5843,19.9996,2.6262e-07,NaN,6.56551e-08,NaN,""
-407.865,24.5843,19.9996,3.12911e-07,NaN,7.82278e-08,NaN,""
-399.079,24.6121,19.9996,4.35708e-07,NaN,1.08927e-07,NaN,""
-386.62,24.6515,19.9998,3.03524e-07,NaN,7.58809e-08,NaN,""
-373.2,24.6492,20,1.59112e-07,NaN,3.97779e-08,NaN,""
-363.746,24.625,19.9999,3.83932e-07,NaN,9.59831e-08,NaN,""
-354.741,24.62,19.9999,6.38527e-07,NaN,1.59632e-07,NaN,""
-345.735,24.6189,19.9999,4.50963e-07,NaN,1.12741e-07,NaN,""
-340.805,24.6183,19.9999,4.31103e-07,NaN,1.07776e-07,NaN,""
-317.585,24.6155,19.9998,5.44874e-07,NaN,1.36219e-07,NaN,""
-299.785,24.6133,19.9998,1.18157e-07,NaN,2.95392e-08,NaN,""
-281.984,24.6112,19.9997,-3.0856e-07,NaN,-7.714e-08,NaN,""
-251.955,24.6076,19.9997,-4.04001e-07,NaN,-1.01e-07,NaN,""
-234.863,24.6101,19.9998,-5.34774e-07,NaN,-1.33694e-07,NaN,""
-221.99,24.612,20,-6.49532e-07,NaN,-1.62383e-07,NaN,""
-209.179,24.6139,20.0002,-3.21733e-07,NaN,-8.04333e-08,NaN,""
-198.882,24.6154,20.0003,-4.73829e-07,NaN,-1.18457e-07,NaN,""
-188.585,24.6169,20.0003,-6.25925e-07,NaN,-1.56481e-07,NaN,""
-170.377,24.6196,20.0004,-3.61164e-07,NaN,-9.0291e-08,NaN,""
-154.921,24.6219,20.0001,-1.36419e-07,NaN,-3.41048e-08,NaN,""
-147.175,24.623,19.9998,-3.10194e-08,NaN,-7.75485e-09,NaN,""
-139.429,24.6242,19.9996,7.03932e-08,NaN,1.75983e-08,NaN,""
-130.923,24.6254,19.9996,1.81753e-07,NaN,4.54382e-08,NaN,""
-117.712,24.6015,19.9997,2.65101e-07,NaN,6.62753e-08,NaN,""
-104.501,24.5775,19.9998,1.0484e-07,NaN,2.62101e-08,NaN,""
-89.7427,24.5867,19.9999,-5.00838e-08,NaN,-1.25209e-08,NaN,""
-84.0542,24.5902,20,9.93531e-08,NaN,2.48383e-08,NaN,""
-83.0542,24.5908,20,2.16962e-05,NaN,5.42406e-06,NaN,""
-68.2954,24.6209,20.0001,NaN,NaN,NaN,NaN,""
-61.3306,24.6469,20.0002,NaN,NaN,NaN,NaN,""
-54.3657,24.6115,20.0001,NaN,NaN,NaN,NaN,""
-41.9448,24.5438,20,NaN,NaN,NaN,NaN,""
-24.4526,24.524,19.9999,NaN,NaN,NaN,NaN,""
-14.6577,24.4251,19.9998,NaN,NaN,NaN,NaN,""
-8.2085,24.4348,19.9998,NaN,NaN,NaN,NaN,""
-1.85693,24.5127,19.9999,NaN,NaN,NaN,NaN,""
13.9458,24.6375,19.9999,NaN,NaN,NaN,NaN,""
32.5396,24.6007,20,NaN,NaN,NaN,NaN,""
39.8677,24.6113,20.0001,NaN,NaN,NaN,NaN,""
47.1958,24.6337,20.0003,NaN,NaN,NaN,NaN,""
58.3228,24.6689,20.0002,NaN,NaN,NaN,NaN,""
73.8677,24.7308,20.0001,NaN,NaN,NaN,NaN,""
99.5537,24.6428,20,NaN,NaN,NaN,NaN,""
114.519,24.6065,20,NaN,NaN,NaN,NaN,""
135.774,24.5633,20,NaN,NaN,NaN,NaN,""
148.79,24.6381,20.0001,NaN,NaN,NaN,NaN,""
163.178,24.6262,20.0001,NaN,NaN,NaN,NaN,""
177.566,24.6142,20,NaN,NaN,NaN,NaN,""
208.43,24.6394,20,NaN,NaN,NaN,NaN,""
228.461,24.6557,19.9995,NaN,NaN,NaN,NaN,""
239.982,24.6479,19.9994,NaN,NaN,NaN,NaN,""
258.946,24.635,19.9994,NaN,NaN,NaN,NaN,""
280.571,24.6204,19.9999,NaN,NaN,NaN,NaN,""
311.529,24.613,20.0001,NaN,NaN,NaN,NaN,""
342.488,24.6188,20.0002,NaN,NaN,NaN,NaN,""
410.247,24.6314,20,NaN,NaN,NaN,NaN,""
450.346,24.6388,20.0001,NaN,NaN,NaN,NaN,""
472.2,24.6275,19.9999,NaN,NaN,NaN,NaN,""
505.29,24.6104,19.9996,NaN,NaN,NaN,NaN,""
509.524,24.6493,19.9996,NaN,NaN,NaN,NaN,""
515.165,24.7011,19.9997,NaN,NaN,NaN,NaN,""
530.524,24.5662,19.9999,NaN,NaN,NaN,NaN,""
538.92,24.5804,19.9999,NaN,NaN,NaN,NaN,""
549.618,24.6217,19.9999,NaN,NaN,NaN,NaN,""
569.639,24.629,19.9999,NaN,NaN,NaN,NaN,""
586.12,24.6524,19.9997,NaN,NaN,NaN,NaN,""
599.446,24.723,19.9996,NaN,NaN,NaN,NaN,""
615.02,24.6895,19.9998,NaN,NaN,NaN,NaN,""
629.946,24.6573,20.0001,NaN,NaN,NaN,NaN,""
645.52,24.6451,20,NaN,NaN,NaN,NaN,""
685.321,24.6162,19.9999,NaN,NaN,NaN,NaN,""
699.563,24.6479,19.9999,NaN,NaN,NaN,NaN,""
713.805,24.6795,19.9998,NaN,NaN,NaN,NaN,""
746.491,24.6742,19.9998,NaN,NaN,NaN,NaN,""
765.071,24.6468,19.9999,NaN,NaN,NaN,NaN,""
779.167,24.6201,20,NaN,NaN,NaN,NaN,""
798.832,24.6352,20,NaN,NaN,NaN,NaN,""
817.133,24.6493,19.9998,NaN,NaN,NaN,NaN,""
838.131,24.6654,20.0003,NaN,NaN,NaN,NaN,""
851.323,24.645,20.0003,NaN,NaN,NaN,NaN,""
873.915,24.6101,20,NaN,NaN,NaN,NaN,""
894.3,24.6045,19.9998,NaN,NaN,NaN,NaN,""
925.68,24.596,19.9998,NaN,NaN,NaN,NaN,""
944.083,24.6248,19.9997,NaN,NaN,NaN,NaN,""
962.485,24.6536,19.9996,NaN,NaN,NaN,NaN,""
984.685,24.6482,19.9996,NaN,NaN,NaN,NaN,""
998.594,24.6448,19.9998,NaN,NaN,NaN,NaN,""
1038.58,24.635,19.9999,NaN,NaN,NaN,NaN,""
1062.31,24.6298,19.9998,NaN,NaN,NaN,NaN,""
1097.67,24.6221,19.9996,NaN,NaN,NaN,NaN,""
1130.51,24.6149,20.0001,NaN,NaN,NaN,NaN,""
1153.86,24.6311,19.9999,NaN,NaN,NaN,NaN,""
1177.21,24.6546,19.9998,NaN,NaN,NaN,NaN,""
1199.65,24.6434,19.9996,NaN,NaN,NaN,NaN,""
1218.75,24.6272,19.9994,NaN,NaN,NaN,NaN,""
1242.06,24.6277,19.9996,NaN,NaN,NaN,NaN,""
1258.63,24.6281,19.9998,NaN,NaN,NaN,NaN,""
1322.38,24.6295,19.9998,NaN,NaN,NaN,NaN,""
1326.95,24.5667,19.9998,NaN,NaN,NaN,NaN,""
1341.24,24.6246,19.9998,NaN,NaN,NaN,NaN,""
1385.7,24.6763,19.9998,NaN,NaN,NaN,NaN,""
1403.21,24.6339,19.9998,NaN,NaN,NaN,NaN,""
1434.08,24.6312,19.9998,NaN,NaN,NaN,NaN,""
1456.81,24.654,19.9999,NaN,NaN,NaN,NaN,""
1464.99,24.6782,20,NaN,NaN,NaN,NaN,""
1490.98,24.6347,20.0001,NaN,NaN,NaN,NaN,""
1514.52,24.677,20.0002,NaN,NaN,NaN,NaN,""
1523.95,24.5526,20.0002,NaN,NaN,NaN,NaN,""
1531.04,24.5883,20.0003,NaN,NaN,NaN,NaN,""
1541.58,24.6412,20,NaN,NaN,NaN,NaN,""
1548.96,24.7252,19.9999,NaN,NaN,NaN,NaN,""
1554.65,24.7694,19.9999,NaN,NaN,NaN,NaN,""
1568.44,24.7606,20.0001,NaN,NaN,NaN,NaN,""
1582.63,24.7516,19.9998,NaN,NaN,NaN,NaN,""
1590.58,24.7687,19.9997,NaN,NaN,NaN,NaN,""
1598.52,24.7857,19.9998,NaN,NaN,NaN,NaN,""
1608.34,24.6816,19.9999,NaN,NaN,NaN,NaN,""
1622.63,24.6795,20.0001,NaN,NaN,NaN,NaN,""
1650.39,24.6753,20.0002,NaN,NaN,NaN,NaN,""
1669.85,24.6773,20.0001,NaN,NaN,NaN,NaN,""
1689.32,24.6799,20,NaN,NaN,NaN,NaN,""
1712.95,24.683,19.9994,NaN,NaN,NaN,NaN,""
1735.33,24.6859,19.9999,NaN,NaN,NaN,NaN,""
1755.53,24.6876,20,NaN,NaN,NaN,NaN,""
1775.73,24.6568,20,NaN,NaN,NaN,NaN,""
1798.31,24.6223,19.9999,NaN,NaN,NaN,NaN,""
1819.36,24.6331,19.9998,NaN,NaN,NaN,NaN,""
1864.95,24.6566,20.0004,NaN,NaN,NaN,NaN,""
1887.94,24.6658,20.0002,NaN,NaN,NaN,NaN,""
1910.94,24.6649,20.0001,NaN,NaN,NaN,NaN,""
1976.74,24.6623,20,NaN,NaN,NaN,NaN,""
2034.11,24.66,20.0002,NaN,NaN,NaN,NaN,""
2085.96,24.6579,20,NaN,NaN,NaN,NaN,""
2112.95,24.6568,19.9996,NaN,NaN,NaN,NaN,""
2139.61,24.6557,19.9998,NaN,NaN,NaN,NaN,""
2152.6,24.6552,20,NaN,NaN,NaN,NaN,""
2169.06,24.586,20.0003,NaN,NaN,NaN,NaN,""
2180.14,24.5835,20.0002,NaN,NaN,NaN,NaN,""
2197.62,24.6533,20.0001,NaN,NaN,NaN,NaN,""
2211.15,24.7241,19.9999,NaN,NaN,NaN,NaN,""
2221.85,24.7862,19.9997,NaN,NaN,NaN,NaN,""
2229.38,24.7133,19.9996,NaN,NaN,NaN,NaN,""
2246.14,24.7086,19.9996,NaN,NaN,NaN,NaN,""
2268.05,24.7025,19.9997,NaN,NaN,NaN,NaN,""
2295.07,24.6949,19.9994,NaN,NaN,NaN,NaN,""
2309.16,24.6919,19.9997,NaN,NaN,NaN,NaN,""
2323.24,24.7029,20,NaN,NaN,NaN,NaN,""
2343.45,24.7187,20,NaN,NaN,NaN,NaN,""
2360.26,24.6982,20,NaN,NaN,NaN,NaN,""
2372.94,24.6989,20,NaN,NaN,NaN,NaN,""
2392.16,24.7508,20,NaN,NaN,NaN,NaN,""
2422.8,24.6676,19.9999,NaN,NaN,NaN,NaN,""
2443.85,24.6787,20,NaN,NaN,NaN,NaN,""
2461.32,24.6879,20.0002,NaN,NaN,NaN,NaN,""
2476.04,24.683,20,NaN,NaN,NaN,NaN,""
2490.77,24.674,19.9998,NaN,NaN,NaN,NaN,""
2514.79,24.6594,20.0003,NaN,NaN,NaN,NaN,""
2527.5,24.6677,20.0002,NaN,NaN,NaN,NaN,""
2540.59,24.6762,20,NaN,NaN,NaN,NaN,""
2551.05,24.6988,20.0001,NaN,NaN,NaN,NaN,""
2561.51,24.7276,20.0002,NaN,NaN,NaN,NaN,""
2573.22,24.7071,20,NaN,NaN,NaN,NaN,""
2582.39,24.6552,19.9999,NaN,NaN,NaN,NaN,""
2600.8,24.6732,19.9996,NaN,NaN,NaN,NaN,""
2615.79,24.6824,19.9996,NaN,NaN,NaN,NaN,""
2632.84,24.6724,19.9996,NaN,NaN,NaN,NaN,""
2654.36,24.6599,20.0001,NaN,NaN,NaN,NaN,""
2658.76,24.6573,20.0002,NaN,NaN,NaN,NaN,""
2672.81,24.7061,20.0003,NaN,NaN,NaN,NaN,""
2683.53,24.6853,20.0002,NaN,NaN,NaN,NaN,""
2696.62,24.6599,20,NaN,NaN,NaN,NaN,""
2708.8,24.6739,20,NaN,NaN,NaN,NaN,""
2723.41,24.6907,20.0002,NaN,NaN,NaN,NaN,""
2730.74,24.6818,20,NaN,NaN,NaN,NaN,""
2738.07,24.6701,19.9998,NaN,NaN,NaN,NaN,""
2749.67,24.6592,19.9999,NaN,NaN,NaN,NaN,""
2769.26,24.7022,19.9999,NaN,NaN,NaN,NaN,""
2776.07,24.6222,19.9999,NaN,NaN,NaN,NaN,""
2789.26,24.6758,20,NaN,NaN,NaN,NaN,""
2799.44,24.7089,20,NaN,NaN,NaN,NaN,""
2828.19,24.7464,20,NaN,NaN,NaN,NaN,""
2843.36,24.7118,19.9999,NaN,NaN,NaN,NaN,""
2858.54,24.6773,19.9997,NaN,NaN,NaN,NaN,""
2871.76,24.6824,19.9996,NaN,NaN,NaN,NaN,""
2889.16,24.6892,19.9997,NaN,NaN,NaN,NaN,""
2913.84,24.6837,19.9998,NaN,NaN,NaN,NaN,""
2949.13,24.6758,20.0001,NaN,NaN,NaN,NaN,""
2960.81,24.7143,20.0002,NaN,NaN,NaN,NaN,""
2972.35,24.7519,20,NaN,NaN,NaN,NaN,""
2990.54,24.7394,19.9998,NaN,NaN,NaN,NaN,""
3033.29,24.71,19.9999,NaN,NaN,NaN,NaN,""
3058.67,24.6627,19.9998,NaN,NaN,NaN,NaN,""
3074.3,24.6491,19.9998,NaN,NaN,NaN,NaN,""
3099.67,24.661,19.9999,NaN,NaN,NaN,NaN,""
3125.17,24.673,20,NaN,NaN,NaN,NaN,""
3144.55,24.671,19.9998,NaN,NaN,NaN,NaN,""
3163.94,24.6689,19.9996,NaN,NaN,NaN,NaN,""
3210.84,24.6639,19.9999,NaN,NaN,NaN,NaN,""
3245.09,24.6602,19.9998,NaN,NaN,NaN,NaN,""
3265.52,24.658,19.9999,NaN,NaN,NaN,NaN,""
3287.95,24.8203,20.0001,NaN,NaN,NaN,NaN,""
3301.7,24.7703,20,NaN,NaN,NaN,NaN,""
3315.45,24.7204,19.9999,NaN,NaN,NaN,NaN,""
3333.23,24.723,19.9998,NaN,NaN,NaN,NaN,""
3351.01,24.7256,19.9999,NaN,NaN,NaN,NaN,""
3371.07,24.6432,20,NaN,NaN,NaN,NaN,""
3377.69,24.6731,20,NaN,NaN,NaN,NaN,""
3384.31,24.703,19.9999,NaN,NaN,NaN,NaN,""
3409.92,24.7288,19.9998,NaN,NaN,NaN,NaN,""
3436.15,24.7552,20.0001,NaN,NaN,NaN,NaN,""
3450.17,24.7465,20.0001,NaN,NaN,NaN,NaN,""
3464.2,24.7379,20,NaN,NaN,NaN,NaN,""
3481.97,24.7588,19.9998,NaN,NaN,NaN,NaN,""
3497.49,24.769,19.9999,NaN,NaN,NaN,NaN,""
3509.4,24.7402,19.9999,NaN,NaN,NaN,NaN,"Reaction start. Measuring position. Signal correct"
3509.45,24.7401,19.9999,NaN,NaN,NaN,NaN,""
3509.95,24.7311,19.9999,0.000121924,6.62417e-05,3.04811e-05,1.65604e-05,""
3790.04,24.6924,19.9998,0.000116463,0.0335903,2.91158e-05,0.00839758,""
3820.95,24.6737,19.9998,0.0231362,0.131684,0.00578406,0.032921,""
3840.95,24.777,19.9999,0.0865673,1.19708,0.0216418,0.29927,""
3859.95,24.8075,20,0.138514,3.34371,0.0346284,0.835927,""
3879.95,24.7373,20,0.180303,6.5837,0.0450757,1.64592,""
3898.95,24.7363,20.0001,0.201723,10.218,0.0504307,2.5545,""
3917.95,24.7127,20.0002,0.212227,14.1592,0.0530567,3.5398,""
3940.45,24.7123,20.0001,0.21531,18.9833,0.0538276,4.74582,""
3969.2,24.7357,20.0001,0.210729,25.127,0.0526822,6.28176,""
3997.95,24.7801,19.9996,0.201024,31.0585,0.0502561,7.76463,""
4032.7,24.7413,20,0.18678,37.7975,0.046695,9.44938,""
4079.95,24.6641,20.0003,0.165122,46.1062,0.0412805,11.5265,""
4109.45,24.7149,20.0001,0.152884,50.7878,0.0382211,12.6969,""
4148.45,24.6988,19.9998,0.136442,56.4165,0.0341105,14.1041,""
4183.2,24.6983,19.9997,0.123138,60.9199,0.0307846,15.23,""
4213.95,24.7184,19.9996,0.112766,64.5312,0.0281915,16.1328,""
4260.25,24.6949,19.9999,0.0973782,69.374,0.0243445,17.3435,""
4298.45,24.6942,19.9999,0.0867518,72.8894,0.021688,18.2223,""
4355.45,24.7662,19.9999,0.0730165,77.4315,0.0182541,19.3579,""
4422.76,24.7415,19.9996,0.0596487,81.8806,0.0149122,20.4702,""
4500.86,24.7595,20,0.0473446,86.0383,0.0118362,21.5096,""
4543.95,24.7037,20.0004,0.0418611,87.9565,0.0104653,21.9891,""
4576.95,24.6922,20.0001,0.0382807,89.2735,0.00957017,22.3184,""
4621.13,24.7115,20.0002,0.0335321,90.8536,0.00838304,22.7134,""
4691.07,24.6908,19.9998,0.0276637,92.9859,0.00691593,23.2465,""
4740.95,24.7287,20,0.024654,94.2802,0.0061635,23.57,""
4781.05,24.6916,20.0002,0.0218118,95.2037,0.00545295,23.8009,""
4843.5,24.7536,19.9998,0.0187502,96.4635,0.00468755,24.1159,""
4896.23,24.7585,19.9999,0.016437,97.3879,0.00410924,24.347,""
4959.95,24.7646,19.9999,0.0142147,98.3607,0.00355367,24.5902,""
5009.26,24.7437,19.9999,0.0127128,99.0231,0.0031782,24.7558,""
5086.32,24.6876,19.9998,0.0108445,99.9288,0.00271112,24.9822,""
5174.45,24.6829,19.9999,0.00918282,100.808,0.00229571,25.2021,""
5264.7,24.6864,19.9999,0.00789108,101.576,0.00197277,25.394,""
5363.88,24.7286,20,0.00678576,102.301,0.00169644,25.5752,""
5451.88,24.7939,19.9998,0.00603897,102.864,0.00150974,25.716,""
5572.95,24.7054,19.9995,0.0052637,103.546,0.00131593,25.8864,""
5696.45,24.7476,20.0002,0.00468392,104.158,0.00117098,26.0396,""
5805.88,24.7424,19.9996,0.00429889,104.649,0.00107472,26.1622,""
5894.51,24.7299,19.9993,0.0040396,105.018,0.0010099,26.2545,""
6043.95,24.7084,19.9998,0.00370482,105.595,0.000926206,26.3988,""
6171.7,24.7467,19.9997,0.00347624,106.053,0.000869059,26.5132,""
6376.95,24.8911,19.9999,0.00318694,106.735,0.000796736,26.6837,""
6564.4,24.7575,19.9995,0.00299257,107.312,0.000748142,26.8281,""
6737.14,24.6961,19.9997,0.00282576,107.814,0.000706441,26.9534,""
6969.53,24.7094,20.0001,0.00264799,108.449,0.000661998,27.1123,""
7236.41,24.6842,19.9999,0.00247661,109.132,0.000619153,27.2831,""
7476.04,24.6799,20,0.00234345,109.71,0.000585862,27.4274,""
7785.56,24.6455,19.9998,0.00219393,110.411,0.000548483,27.6028,""
7937.4,24.6566,20,0.00212774,110.739,0.000531934,27.6849,""
8176.38,24.6513,20.0001,0.00203246,111.236,0.000508115,27.8091,""
8522.76,24.601,19.9999,0.00190962,111.919,0.000477404,27.9797,""
8694.07,24.5891,19.9998,0.00185428,112.241,0.000463569,28.0602,""
9004.86,24.5917,19.9999,0.00176213,112.803,0.000440534,28.2007,""
9286.05,24.5839,19.9998,0.00168626,113.287,0.000421566,28.3218,""
9597.48,24.4998,19.9996,0.00161028,113.8,0.000402571,28.4501,""
9824.5,24.553,19.9995,0.00155911,114.16,0.000389777,28.5401,""
10334.2,24.5259,19.9997,0.00145359,114.927,0.000363397,28.7318,""
10744.9,24.5074,20.0002,0.00137953,115.509,0.000344882,28.8772,""
10999.4,24.5184,19.9995,0.00133856,115.855,0.000334641,28.9636,""
11349.9,24.5256,19.9998,0.00128595,116.315,0.000321489,29.0786,""
11752.5,24.4594,19.9998,0.00123048,116.821,0.000307619,29.2052,""
11949.6,24.5318,19.9997,0.00120579,117.061,0.000301448,29.2653,""
12327.9,24.4866,19.9994,0.00116768,117.509,0.000291919,29.3773,""
12640.7,24.5086,20,0.00114657,117.871,0.000286642,29.4678,""
13082.9,24.4663,19.9999,0.00111219,118.373,0.000278048,29.5932,""
13340.6,24.4726,19.9996,0.00107391,118.654,0.000268478,29.6636,""
13778.1,24.4337,19.9995,0.0010213,119.112,0.000255325,29.7781,""
14227.5,24.4776,19.9998,0.000979088,119.562,0.000244772,29.8904,""
14593.1,24.4554,19.9998,0.000948442,119.914,0.00023711,29.9784,""
14900.6,24.4665,20.0002,0.000924952,120.202,0.000231238,30.0505,""
15233.8,24.4109,19.9997,0.000901233,120.506,0.000225308,30.1265,""
15513.5,24.4169,19.9998,0.000881454,120.755,0.000220363,30.1888,""
15892.7,24.41,19.9999,0.000857278,121.085,0.00021432,30.2712,""
16258.3,24.4384,19.9999,0.000835274,121.394,0.000208819,30.3486,""
16689.3,24.4392,19.9996,0.000811085,121.749,0.000202771,30.4373,""
17089.4,24.4236,19.9997,0.000790011,122.069,0.000197503,30.5173,""
17375.9,24.4111,20,0.000775769,122.294,0.000193942,30.5734,""
17766.2,24.4246,19.9997,0.000757176,122.593,0.000189294,30.6482,""
18049.9,24.3596,19.9996,0.00074374,122.806,0.000185935,30.7014,""
18352.3,24.3957,19.9999,0.000730073,123.029,0.000182518,30.7571,""
18679.2,24.4013,19.9996,0.000716207,123.265,0.000179052,30.8162,""
18948.4,24.4056,19.9996,0.000706415,123.456,0.000176604,30.8641,""
19259.9,24.4058,19.9995,0.000697368,123.675,0.000174342,30.9187,""
19562.5,24.3879,20,0.000691521,123.885,0.00017288,30.9713,""
19933.6,24.393,19.9996,0.000687781,124.141,0.000171945,31.0352,""
20233.5,24.3898,19.9998,0.000686263,124.347,0.000171566,31.0867,""
20659.3,24.4041,19.9998,0.000686016,124.639,0.000171504,31.1598,""
20997,24.4037,19.9996,0.00068601,124.871,0.000171503,31.2177,""
21434.2,24.3446,19.9994,0.000687204,125.171,0.000171801,31.2928,""
21857.4,24.3838,20.0001,0.000688106,125.462,0.000172026,31.3655,""
22279,24.4144,19.9998,0.000689119,125.752,0.00017228,31.4381,""
22624.8,24.3877,19.9998,0.000689697,125.991,0.000172424,31.4977,""
23011.1,24.3724,20,0.000689953,126.257,0.000172488,31.5643,""
23419.5,24.3712,19.9999,0.000689236,126.539,0.000172309,31.6347,""
23707.3,24.3954,20.0002,0.000688906,126.737,0.000172227,31.6843,""
24029.6,24.4059,19.9999,0.000687831,126.959,0.000171958,31.7398,""
24374.3,24.3851,20,0.000686463,127.196,0.000171616,31.799,""
24781.3,24.4135,19.9995,0.000684096,127.475,0.000171024,31.8687,""
25156.1,24.3743,19.9996,0.000681501,127.731,0.000170375,31.9327,""
25579.7,24.353,19.9993,0.000678355,128.019,0.000169589,32.0047,""
25924.7,24.3578,20.0001,0.000675854,128.252,0.000168964,32.0631,""
26301.2,24.3604,19.9997,0.000672688,128.506,0.000168172,32.1265,""
26703.2,24.3591,19.9999,0.000669421,128.776,0.000167355,32.194,""
27093.4,24.3706,19.9999,0.000666319,129.037,0.00016658,32.2591,""
27570,24.3586,19.9998,0.000662013,129.353,0.000165503,32.3383,""
27859.7,24.3531,20.0003,0.000659645,129.545,0.000164911,32.3861,""
28245.9,24.3195,19.9999,0.000656551,129.799,0.000164138,32.4497,""
28465.6,24.3367,19.9998,0.000654566,129.943,0.000163642,32.4857,""
28795.2,24.3506,20,0.000651915,130.158,0.000162979,32.5395,""
29135.6,24.3511,19.9998,0.000649278,130.379,0.000162319,32.5949,""
29483.5,24.388,19.9997,0.000646286,130.605,0.000161572,32.6512,""
29900.8,24.3758,19.9999,0.000643345,130.874,0.000160836,32.7185,""
30247,24.3432,19.9997,0.000640677,131.096,0.000160169,32.7741,""
30772.6,24.4051,20,0.00063672,131.432,0.00015918,32.858,""
31062.7,24.3766,20.0005,0.000634558,131.616,0.00015864,32.9041,""
31387.4,24.339,20.0001,0.000632165,131.822,0.000158041,32.9555,""
31691.7,24.3387,19.9999,0.000630192,132.014,0.000157548,33.0035,""
32074.9,24.323,19.9999,0.000627301,132.255,0.000156825,33.0638,""
32459.8,24.352,19.9994,0.000624984,132.496,0.000156246,33.124,""
32798.3,24.34,19.9997,0.000622442,132.707,0.000155611,33.1768,""
33127.9,24.344,20.0006,0.00062037,132.912,0.000155092,33.228,""
33442.9,24.3276,19.9995,0.000618338,133.107,0.000154584,33.2768,""
33707.6,24.364,20,0.000616868,133.271,0.000154217,33.3177,""
34045.6,24.3553,19.9993,0.000614448,133.479,0.000153612,33.3697,""
34383.3,24.3212,20,0.000612697,133.686,0.000153174,33.4215,""
34718.7,24.3387,20,0.000610508,133.891,0.000152627,33.4728,""
34979.2,24.3356,19.9999,0.000609312,134.05,0.000152328,33.5125,""
35316.8,24.3973,20,0.000607441,134.255,0.00015186,33.5638,""
35696.6,24.3844,20.0001,0.000605043,134.486,0.000151261,33.6214,""
36026.8,24.3508,20,0.000603547,134.685,0.000150887,33.6713,""
36328.9,24.3493,19.9997,0.000601464,134.867,0.000150366,33.7168,""
36724.1,24.3124,19.9999,0.000599684,135.105,0.000149921,33.7762,""
37074.4,24.3339,20,0.000597922,135.315,0.00014948,33.8286,""
37374.9,24.3142,19.9999,0.000596116,135.494,0.000149029,33.8735,""
37876.8,24.3466,19.9999,0.000593765,135.793,0.000148441,33.9482,""
38341.8,24.3784,19.9996,0.000591676,136.068,0.000147919,34.0171,""
38871.4,24.3505,20,0.000589129,136.381,0.000147282,34.0953,""
39172.3,24.3539,19.9998,0.000588187,136.558,0.000147047,34.1395,""
39426.9,24.3215,19.9999,0.000586629,136.708,0.000146657,34.1769,""
39711.1,24.2925,19.9999,0.000585458,136.874,0.000146365,34.2186,""
40113.9,24.3272,19.9997,0.000583858,137.11,0.000145965,34.2774,""
40446,24.3363,19.9995,0.000582494,137.303,0.000145624,34.3258,""
40748.7,24.3646,19.9999,0.000581228,137.479,0.000145307,34.3699,""
41053.4,24.311,19.9995,0.00057982,137.656,0.000144955,34.4141,""
41426.5,24.3473,20.0001,0.000578093,137.872,0.000144523,34.4681,""
41773.5,24.3187,20,0.000576925,138.073,0.000144231,34.5182,""
42123.3,24.3184,19.9995,0.000575219,138.274,0.000143805,34.5685,""
42459.4,24.3026,19.9997,0.000574056,138.467,0.000143514,34.6168,""
42806.8,24.335,19.9999,0.000572829,138.667,0.000143207,34.6666,""
43186.3,24.3434,19.9998,0.000571358,138.884,0.00014284,34.7209,""
43415.7,24.3265,19.9998,0.000570473,139.015,0.000142618,34.7536,""
43827.6,24.3223,19.9996,0.000569118,139.249,0.00014228,34.8123,""
44078.6,24.3717,19.9996,0.000568315,139.392,0.000142079,34.848,""
44433.5,24.3157,19.9999,0.000566813,139.593,0.000141703,34.8984,""
44803,24.3228,19.9997,0.000565867,139.803,0.000141467,34.9507,""
45285,24.2936,20,0.00056446,140.075,0.000141115,35.0187,""
45587.5,24.3064,19.9998,0.00056312,140.245,0.00014078,35.0614,""
46003,24.3519,19.9999,0.000562427,140.479,0.000140607,35.1198,""
46392.5,24.3426,19.9999,0.000560656,140.698,0.000140164,35.1745,""
46696.9,24.3242,19.9999,0.00056034,140.869,0.000140085,35.2172,""
47042.4,24.3094,19.9999,0.000559254,141.062,0.000139814,35.2655,""
47331.2,24.3139,19.9993,0.000558505,141.223,0.000139626,35.3058,""
47600.5,24.2438,19.9999,0.000557805,141.374,0.000139451,35.3434,""
47916.3,24.3034,20,0.000556915,141.55,0.000139229,35.3874,""
48239.6,24.3248,19.9999,0.000556112,141.729,0.000139028,35.4324,""
48574.2,24.2802,19.9996,0.000555257,141.915,0.000138814,35.4788,""
48970.9,24.3374,20.0002,0.000553938,142.135,0.000138484,35.5339,""
49286,24.2709,20.0001,0.000553996,142.31,0.000138499,35.5775,""
49629.3,24.2859,20,0.000552804,142.5,0.000138201,35.625,""
49908.3,24.3391,19.9996,0.000552499,142.654,0.000138125,35.6635,""
50203.5,24.3352,19.9996,0.000551894,142.817,0.000137973,35.7042,""
50665.8,24.3192,19.9997,0.000550712,143.072,0.000137678,35.768,""
50946.1,24.3145,19.9997,0.000550412,143.226,0.000137603,35.8066,""
51296.5,24.3493,20.0001,0.000549741,143.419,0.000137435,35.8547,""
51638,24.3267,20.0001,0.000549631,143.607,0.000137408,35.9017,""
52118.6,24.3416,19.9995,0.000548522,143.87,0.000137131,35.9676,""
52426.1,24.308,19.9996,0.000547879,144.039,0.00013697,36.0098,""
52805.6,24.3253,20,0.000547612,144.247,0.000136903,36.0617,""
53133.9,24.2876,19.9997,0.000546726,144.427,0.000136681,36.1066,""
53398.4,24.302,19.9996,0.0005469,144.571,0.000136725,36.1428,""
53822.6,24.3243,19.9998,0.000546821,144.803,0.000136705,36.2008,""
54224,24.2941,20,0.00054602,145.022,0.000136505,36.2556,""
54510.7,24.3234,20,0.000546202,145.179,0.00013655,36.2947,""
54903.9,24.3586,19.9999,0.000545597,145.393,0.000136399,36.3483,""
55202.3,24.3082,19.9998,0.000545278,145.556,0.00013632,36.389,""
55513.9,24.3312,19.9996,0.000545131,145.726,0.000136283,36.4315,""
55893.2,24.3325,20,0.000545083,145.933,0.000136271,36.4832,""
56155,24.2952,19.9998,0.000544966,146.075,0.000136241,36.5189,""
56497.2,24.3083,19.9996,0.000545097,146.262,0.000136274,36.5655,""
56898.7,24.326,20.0002,0.000544974,146.481,0.000136243,36.6202,""
57166.5,24.3137,20,0.000545072,146.627,0.000136268,36.6567,""
57457.1,24.319,19.9998,0.000545032,146.785,0.000136258,36.6963,""
57779.4,24.3012,19.9996,0.00054516,146.961,0.00013629,36.7402,""
58183.4,24.3126,19.9998,0.00054563,147.181,0.000136407,36.7953,""
58599.6,24.3217,19.9994,0.00054577,147.408,0.000136443,36.8521,""
58903.6,24.3047,19.9997,0.000545984,147.574,0.000136496,36.8935,""
59274.2,24.2683,19.9999,0.000546611,147.777,0.000136653,36.9442,""
59610.9,24.2765,20,0.00054716,147.961,0.00013679,36.9902,""
59870.2,24.2865,19.9998,0.000547707,148.103,0.000136927,37.0257,""
60250.1,24.3062,19.9998,0.000547992,148.311,0.000136998,37.0777,""
60587.3,24.3076,19.9999,0.000548945,148.496,0.000137236,37.1239,""
60926,24.3088,19.9998,0.000549581,148.682,0.000137395,37.1704,""
61310.5,24.3204,19.9999,0.00055006,148.893,0.000137515,37.2233,""
61626.3,24.2809,20.0003,0.000551204,149.067,0.000137801,37.2668,""
61940.4,24.2746,19.9997,0.000551877,149.24,0.000137969,37.3101,""
62341.1,24.2851,20,0.000552634,149.462,0.000138159,37.3654,""
62614.8,24.273,19.9997,0.000553616,149.613,0.000138404,37.4033,""
62929,24.2612,19.9996,0.00055471,149.787,0.000138678,37.4468,""
63244.9,24.2766,19.9995,0.000555999,149.963,0.000139,37.4907,""
63582.2,24.2539,19.9999,0.000557548,150.151,0.000139387,37.5376,""
63880.5,24.2932,19.9995,0.000558512,150.317,0.000139628,37.5792,""
64230,24.302,19.9998,0.000559913,150.512,0.000139978,37.6281,""
64616.7,24.2874,19.9998,0.00056223,150.729,0.000140558,37.6824,""
65095.5,24.3002,19.9999,0.000564046,150.999,0.000141011,37.7497,""
65444.6,24.2716,19.9997,0.000566283,151.196,0.000141571,37.7991,""
65816.3,24.2521,20.0008,0.000567876,151.407,0.000141969,37.8518,""
66141.5,24.2535,20,0.000570009,151.592,0.000142502,37.898,""
66541,24.2754,19.9999,0.000572392,151.82,0.000143098,37.955,""
66903.7,24.2545,20,0.000574325,152.028,0.000143581,38.007,""
67243.7,24.3212,19.9998,0.000576739,152.224,0.000144185,38.0559,""
67525,24.2734,19.9997,0.000578622,152.386,0.000144656,38.0966,""
67830.7,24.2921,20,0.000580656,152.563,0.000145164,38.1409,""
68196.4,24.2613,19.9993,0.000583452,152.776,0.000145863,38.1941,""
68484,24.2434,19.9996,0.00058567,152.944,0.000146418,38.2361,""
68784.8,24.2889,19.9998,0.000588496,153.121,0.000147124,38.2803,""
69241.9,24.2832,19.9994,0.000592602,153.391,0.00014815,38.3478,""
69631.4,24.2728,19.9996,0.000596365,153.623,0.000149091,38.4057,""
70110.7,24.2721,19.9995,0.000601448,153.91,0.000150362,38.4774,""
70398.3,24.2811,19.9996,0.000604927,154.083,0.000151232,38.5208,""
70690.9,24.2837,19.9999,0.000607841,154.261,0.00015196,38.5651,""
70998.8,24.2834,19.9997,0.000611714,154.448,0.000152928,38.6121,""
71387,24.2655,20.0003,0.000615979,154.687,0.000153995,38.6716,""
71682,24.2613,20.0002,0.000619434,154.869,0.000154858,38.7172,""
71991.4,24.2742,20.0008,0.00062325,155.061,0.000155813,38.7653,""
72313.1,24.2749,20.0001,0.000627867,155.262,0.000156967,38.8156,""
72614.2,24.2446,20.0001,0.000631497,155.452,0.000157874,38.863,""
73026.2,24.297,20.0001,0.000637595,155.713,0.000159399,38.9283,""
73401.1,24.3046,19.9999,0.000642642,155.953,0.000160661,38.9883,""
73855.5,24.3219,19.999,0.000649571,156.247,0.000162393,39.0617,""
74202,24.2645,19.9994,0.000655152,156.473,0.000163788,39.1182,""
74524,24.2653,19.9996,0.000660464,156.685,0.000165116,39.1711,""
74826.8,24.2649,19.9995,0.00066586,156.885,0.000166465,39.2213,""
75165.6,24.2464,19.9997,0.000671734,157.112,0.000167933,39.278,""
75489.9,24.2566,19.9999,0.00067807,157.331,0.000169518,39.3327,""
75837.1,24.2318,19.9997,0.000684425,157.567,0.000171106,39.3918,""
76272.9,24.2436,19.9997,0.000693095,157.868,0.000173274,39.4669,""
76579.5,24.2765,20.0005,0.000699774,158.081,0.000174944,39.5203,""
76934.5,24.278,20.0004,0.000707265,158.331,0.000176816,39.5827,""
77302.5,24.2678,20.0001,0.000715163,158.593,0.000178791,39.6481,""
77662.6,24.2802,19.9999,0.000723151,158.851,0.000180788,39.7129,""
78020.7,24.2455,19.9999,0.00073123,159.112,0.000182807,39.7779,""
78395.5,24.2946,19.9996,0.000740445,159.388,0.000185111,39.8469,""
78677.4,24.2895,19.9997,0.000747422,159.597,0.000186855,39.8993,""
79012.7,24.3059,20,0.000755768,159.849,0.000188942,39.9623,""
79452.2,24.2828,19.9993,0.000767415,160.184,0.000191854,40.0459,""
79717.1,24.2701,19.9998,0.000774619,160.388,0.000193655,40.097,""
80151.1,24.2634,19.9998,0.00078684,160.727,0.00019671,40.1817,""
80493.2,24.288,19.9997,0.000797085,160.998,0.000199271,40.2495,""
80810.7,24.284,20,0.000806618,161.252,0.000201654,40.3131,""
81134.7,24.307,19.9998,0.000816633,161.515,0.000204158,40.3788,""
81466.6,24.3152,20.0002,0.000826963,161.788,0.000206741,40.447,""
81828,24.2846,19.9996,0.000838987,162.089,0.000209747,40.5223,""
82170.4,24.2767,19.9998,0.000850238,162.378,0.00021256,40.5946,""
82582.7,24.2754,20.0001,0.000864634,162.732,0.000216158,40.6829,""
82995.1,24.3193,19.9999,0.000879071,163.091,0.000219768,40.7728,""
83351.9,24.2885,19.9992,0.000892232,163.407,0.000223058,40.8518,""
83669.3,24.3121,19.9997,0.000904144,163.692,0.000226036,40.9231,""
84123.7,24.3489,19.9997,0.000921737,164.107,0.000230434,41.0268,""
84587.5,24.3196,20.0001,0.00094039,164.539,0.000235097,41.1347,""
84972.5,24.2718,19.9999,0.000956381,164.904,0.000239095,41.2259,""
85287.6,24.2923,20.0005,0.000969451,165.207,0.000242363,41.3018,""
85654.7,24.2891,19.9999,0.000985562,165.566,0.000246391,41.3915,""
86024.3,24.2982,20.0001,0.00100166,165.933,0.000250414,41.4833,""
86383.4,24.283,19.9999,0.00101829,166.296,0.000254572,41.574,""
86705.5,24.3109,19.9999,0.00103305,166.626,0.000258262,41.6566,""
87195.4,24.3083,19.9999,0.00105652,167.138,0.00026413,41.7846,""
87480,24.288,19.9996,0.00107026,167.441,0.000267566,41.8602,""
87768.5,24.298,20,0.00108418,167.751,0.000271044,41.9379,""
88076.6,24.2778,19.9998,0.0010994,168.088,0.000274849,42.022,""
88472.7,24.2877,20.0003,0.00112018,168.528,0.000280044,42.1319,""
88762.9,24.2684,19.9996,0.00113515,168.855,0.000283788,42.2137,""
89206.2,24.2766,19.9998,0.00115966,169.363,0.000289914,42.3408,""
89543.8,24.306,19.9998,0.00117803,169.758,0.000294507,42.4395,""
90014.9,24.2687,20.0001,0.00120468,170.319,0.00030117,42.5798,""
90381.9,24.2952,20,0.00122615,170.765,0.000306538,42.6912,""
90822.4,24.3011,20.0003,0.00125211,171.311,0.000313028,42.8278,""
91242.5,24.3002,19.9999,0.00127744,171.842,0.000319359,42.9605,""
91697.9,24.3171,20,0.00130612,172.43,0.000326529,43.1076,""
92148.9,24.2704,19.9997,0.00133465,173.026,0.000333661,43.2564,""
92399.8,24.3063,20,0.00135102,173.362,0.000337754,43.3406,""
92911.9,24.3205,20.0001,0.00138462,174.063,0.000346155,43.5157,""
93365.6,24.318,19.9985,0.00141506,174.698,0.000353764,43.6745,""
93740.4,24.3039,19.9996,0.00144111,175.233,0.000360277,43.8083,""
94105.1,24.2255,19.9998,0.00146692,175.763,0.00036673,43.9409,""
94592.1,24.313,19.9999,0.0015023,176.486,0.000375575,44.1216,""
94838.2,24.2917,19.9999,0.00152025,176.858,0.000380063,44.2146,""
95130.9,24.2621,19.9997,0.00154177,177.307,0.000385442,44.3266,""
95514.4,24.2775,19.9998,0.00157053,177.903,0.000392633,44.4758,""
95816.5,24.2838,20.0001,0.0015937,178.381,0.000398424,44.5953,""
96239.9,24.2632,20.0001,0.00162613,179.063,0.000406533,44.7657,""
96614.8,24.285,19.9999,0.00165588,179.678,0.000413971,44.9195,""
96896.3,24.283,19.9994,0.00167778,180.147,0.000419446,45.0368,""
97335,24.2985,20.0002,0.0017129,180.891,0.000428224,45.2227,""
97692.5,24.2983,20,0.00174219,181.509,0.000435548,45.3772,""
98085.2,24.2904,20.0002,0.00177496,182.199,0.00044374,45.5498,""
98474.3,24.2746,19.9996,0.00180787,182.896,0.000451968,45.724,""
98794.1,24.2862,20,0.00183474,183.479,0.000458686,45.8697,""
99137.3,24.2937,20.0001,0.00186409,184.113,0.000466023,46.0283,""
99458.2,24.2841,19.9997,0.00189245,184.716,0.000473112,46.179,""
99863.1,24.2688,19.9999,0.00192778,185.49,0.000481944,46.3724,""
100205,24.2885,20.0002,0.00195827,186.154,0.000489566,46.5385,""
100629,24.2994,19.9997,0.00199629,186.993,0.000499072,46.7483,""
100976,24.3188,20.0003,0.00202839,187.691,0.000507096,46.9227,""
101239,24.3013,20.0004,0.00205257,188.227,0.000513144,47.0567,""
101589,24.2704,20,0.00208489,188.951,0.000521221,47.2377,""
101981,24.3232,19.9998,0.00212147,189.776,0.000530367,47.4441,""
102265,24.2948,19.9992,0.00214816,190.383,0.000537041,47.5958,""
102535,24.2761,20.0002,0.00217425,190.966,0.000543563,47.7415,""
102865,24.2939,19.9994,0.00220602,191.688,0.000551505,47.922,""
103190,24.3043,19.9999,0.00223744,192.411,0.000559359,48.1027,""
103520,24.3183,19.9997,0.00227013,193.154,0.000567534,48.2886,""
103818,24.3357,19.9999,0.00229954,193.835,0.000574885,48.4587,""
104045,24.3036,19.9997,0.00232214,194.361,0.000580536,48.5901,""
104334,24.3322,20,0.00235087,195.034,0.000587717,48.7584,""
104662,24.314,20.0001,0.00238371,195.812,0.000595927,48.953,""
105073,24.2978,19.9997,0.00242545,196.801,0.000606361,49.2002,""
105372,24.2742,19.9998,0.00245579,197.53,0.000613948,49.3824,""
105702,24.2785,20,0.00248956,198.347,0.000622391,49.5866,""
106077,24.2448,19.9995,0.00252859,199.286,0.000632147,49.8214,""
106477,24.3106,19.9997,0.00256989,200.307,0.000642472,50.0767,""
106755,24.2705,19.9999,0.00259917,201.024,0.000649793,50.2561,""
107086,24.2893,19.9999,0.0026343,201.892,0.000658576,50.4729,""
107495,24.3058,20.0001,0.00267725,202.976,0.000669313,50.744,""
107784,24.287,19.9997,0.00270796,203.755,0.00067699,50.9388,""
108130,24.2653,20.0005,0.00274501,204.699,0.000686253,51.1747,""
108478,24.2783,19.9999,0.00278284,205.661,0.000695711,51.4152,""
108842,24.2873,19.9999,0.0028219,206.681,0.000705474,51.6703,""
109202,24.273,20,0.00286105,207.702,0.000715261,51.9255,""
109568,24.3042,19.9999,0.00290049,208.756,0.000725123,52.1891,""
109988,24.3137,20.0001,0.00294627,209.985,0.000736567,52.4962,""
110337,24.305,20,0.00298447,211.019,0.000746119,52.7548,""
110673,24.3075,20,0.00302167,212.03,0.000755417,53.0074,""
111029,24.2778,19.9999,0.00306086,213.112,0.000765215,53.2779,""
111360,24.3314,19.9998,0.00309754,214.13,0.000774385,53.5325,""
111684,24.3529,19.9999,0.00313335,215.141,0.000783337,53.7852,""
112179,24.3014,19.9999,0.00318797,216.706,0.000796992,54.1766,""
112426,24.2985,20,0.00321554,217.495,0.000803884,54.3737,""
112777,24.3075,20.0002,0.00325461,218.631,0.000813654,54.6578,""
113166,24.2797,19.9999,0.0032979,219.906,0.000824474,54.9764,""
113524,24.3101,19.9998,0.00333773,221.094,0.000834433,55.2735,""
113861,24.322,20.0001,0.003375,222.225,0.00084375,55.5561,""
114199,24.3305,20.0002,0.00341298,223.37,0.000853246,55.8426,""
114623,24.3346,19.9999,0.00345971,224.827,0.000864927,56.2067,""
115019,24.3005,19.9998,0.00350402,226.209,0.000876006,56.5523,""
115345,24.31,20,0.00354008,227.356,0.000885019,56.8391,""
115791,24.3351,19.9989,0.00358964,228.944,0.000897411,57.2361,""
116077,24.2871,19.9997,0.00362155,229.978,0.000905387,57.4944,""
116402,24.3353,20,0.00365716,231.161,0.000914289,57.7903,""
116732,24.3136,20,0.00369422,232.373,0.000923554,58.0932,""
117098,24.3362,19.9999,0.00373435,233.733,0.000933588,58.4333,""
117410,24.2965,19.9998,0.00376885,234.902,0.000942213,58.7255,""
117766,24.328,20,0.00380776,236.253,0.000951939,59.0632,""
118088,24.3106,19.9996,0.00384295,237.483,0.000960738,59.3707,""
118388,24.3441,19.9999,0.00387543,238.64,0.000968857,59.6599,""
118733,24.345,20.0002,0.00391262,239.983,0.000978155,59.9957,""
119063,24.3434,19.9996,0.00394882,241.282,0.000987204,60.3205,""
119395,24.2722,19.9998,0.00398415,242.598,0.000996038,60.6495,""
119730,24.3028,19.9995,0.00402006,243.937,0.00100501,60.9844,""
120072,24.3372,20.0001,0.00405662,245.32,0.00101416,61.3299,""
120613,24.3419,19.9997,0.00411354,247.529,0.00102838,61.8822,""
120885,24.3322,20,0.00414266,248.653,0.00103567,62.1633,""
121190,24.3264,20.0002,0.0041741,249.919,0.00104352,62.4799,""
121577,24.3138,19.9998,0.00421485,251.543,0.00105371,62.8857,""
121816,24.3099,19.9998,0.00423915,252.553,0.00105979,63.1383,""
122131,24.3113,19.9996,0.00427213,253.893,0.00106803,63.4733,""
122462,24.3208,20,0.00430576,255.316,0.00107644,63.829,""
[...]
144331,24.2948,19.9994,0.0059988,369.554,0.0014997,92.3884,""
144721,24.2934,20,0.00601747,371.898,0.00150437,92.9744,""
145096,24.2792,19.9997,0.00603424,374.157,0.00150856,93.5392,""
145463,24.2722,20.0001,0.00604969,376.374,0.00151242,94.0934,""
145820,24.2849,19.9992,0.00606358,378.536,0.00151589,94.634,""
146186,24.2975,19.9999,0.00607721,380.759,0.0015193,95.1897,""
146729,24.3196,19.9997,0.00609544,384.064,0.00152386,96.016,""
147129,24.2906,19.9998,0.00610868,386.504,0.00152717,96.6261,""
147650,24.2887,19.9996,0.00612457,389.691,0.00153114,97.4228,""
148108,24.3065,19.9999,0.00613835,392.497,0.00153459,98.1243,""
148627,24.3516,19.9996,0.00615331,395.691,0.00153833,98.9227,""
148927,24.2954,19.9999,0.00616098,397.537,0.00154025,99.3842,""
149325,24.2751,19.9994,0.0061716,399.989,0.0015429,99.9972,""
149695,24.2838,19.9998,0.00618148,402.275,0.00154537,100.569,""
150074,24.2725,19.9998,0.00619008,404.62,0.00154752,101.155,""
150406,24.2789,20.0006,0.00619657,406.674,0.00154914,101.668,""
150814,24.3054,20.0002,0.00620373,409.203,0.00155093,102.301,""
151143,24.3086,19.9997,0.0062071,411.249,0.00155178,102.812,""
151514,24.3157,19.9999,0.006209,413.549,0.00155225,103.387,""
152081,24.2669,19.9995,0.00620955,417.072,0.00155239,104.268,""
152509,24.2828,20.0001,0.0062077,419.727,0.00155192,104.932,""
153052,24.2582,19.9999,0.00620349,423.098,0.00155087,105.774,""
153412,24.2798,20.0001,0.00619908,425.327,0.00154977,106.332,""
153827,24.2663,19.9997,0.00619418,427.902,0.00154855,106.976,""
154347,24.294,19.9998,0.00618589,431.122,0.00154647,107.781,""
154783,24.3119,19.9997,0.00617827,433.814,0.00154457,108.453,""
155358,24.2718,20,0.00616726,437.367,0.00154182,109.342,""
155907,24.2775,20,0.00615547,440.746,0.00153887,110.187,""
156254,24.27,19.9997,0.00614746,442.885,0.00153686,110.721,""
156509,24.2309,19.9992,0.00614127,444.448,0.00153532,111.112,""
156823,24.2653,19.9998,0.00613352,446.376,0.00153338,111.594,""
157171,24.2684,20.0001,0.00612463,448.513,0.00153116,112.128,""
157506,24.2618,19.9999,0.00611615,450.561,0.00152904,112.64,""
157932,24.2915,19.9997,0.00610491,453.164,0.00152623,113.291,""
158277,24.2846,19.9995,0.00609505,455.269,0.00152376,113.817,""
158552,24.2895,19.9999,0.00608731,456.944,0.00152183,114.236,""
158906,24.2976,20.0001,0.00607689,459.098,0.00151922,114.775,""
159306,24.3074,19.9997,0.00606519,461.523,0.0015163,115.381,""
159803,24.3593,19.9999,0.00605007,464.536,0.00151252,116.134,""
160218,24.3553,19.9999,0.00603705,467.044,0.00150926,116.761,""
160581,24.328,19.9999,0.00602533,469.235,0.00150633,117.309,""
161027,24.4019,20.0001,0.00601106,471.915,0.00150277,117.979,""
161335,24.6014,20.0003,0.00600097,473.767,0.00150024,118.442,""
161638,24.4568,19.9997,0.00599098,475.582,0.00149775,118.896,""
162005,24.4068,20,0.00597889,477.779,0.00149472,119.445,""
162416,24.4162,20.0003,0.00596526,480.233,0.00149131,120.058,""
162722,24.4097,19.9996,0.00595462,482.056,0.00148866,120.514,""
163171,24.4406,20.0001,0.00593923,484.728,0.00148481,121.182,""
163750,24.3973,19.9995,0.00591942,488.161,0.00147986,122.04,""
164139,24.3908,19.9997,0.00590585,490.459,0.00147646,122.615,""
164602,24.3883,19.9998,0.005889,493.192,0.00147225,123.298,""
165131,24.4005,19.9996,0.0058698,496.304,0.00146745,124.076,""
165473,24.4676,20.0001,0.00585718,498.309,0.0014643,124.577,""
165805,24.4356,19.9999,0.00584505,500.252,0.00146126,125.063,""
166221,24.4816,19.9997,0.00582977,502.677,0.00145744,125.669,""
166716,24.4189,19.9999,0.00581132,505.559,0.00145283,126.39,""
167021,24.4644,19.9996,0.00580047,507.332,0.00145012,126.833,""
167394,24.4224,19.9998,0.00578639,509.492,0.0014466,127.373,""
167811,24.4286,20.0002,0.00577079,511.899,0.0014427,127.975,""
168263,24.4066,19.9996,0.00575375,514.504,0.00143844,128.626,""
168687,24.3869,19.9999,0.00573751,516.943,0.00143438,129.236,""
169136,24.4097,20,0.00572034,519.514,0.00143009,129.878,""
169434,24.3905,20,0.00570904,521.216,0.00142726,130.304,""
169935,24.4228,19.9998,0.00568948,524.071,0.00142237,131.018,""
170254,24.4581,20.0001,0.00567721,525.883,0.0014193,131.471,""
170719,24.453,19.9998,0.00565923,528.523,0.00141481,132.131,""
171093,24.4692,20.0002,0.0056449,530.636,0.00141123,132.659,""
171418,24.5088,19.9996,0.00563209,532.47,0.00140802,133.117,""
171893,24.478,20,0.00561391,535.14,0.00140348,133.785,""
172252,24.5016,19.9997,0.00559985,537.152,0.00139996,134.288,""
172586,24.5539,20.0001,0.00558684,539.017,0.00139671,134.754,""
173051,24.4918,19.9996,0.00556846,541.613,0.00139211,135.403,""
173304,24.4675,19.9998,0.00555882,543.021,0.00138971,135.755,""
173894,24.4963,19.9997,0.00553538,546.293,0.00138385,136.573,""
174273,24.508,19.9997,0.00552018,548.389,0.00138004,137.097,""
174653,24.4526,19.9999,0.00550545,550.485,0.00137636,137.621,""
174933,24.5452,20.0001,0.00549434,552.023,0.00137359,138.006,""
175498,24.5346,19.9998,0.00547188,555.122,0.00136797,138.78,""
175905,24.4949,19.9999,0.00545576,557.345,0.00136394,139.336,""
176439,24.5071,20,0.00543489,560.251,0.00135872,140.063,""
176778,24.5285,20.0003,0.00542179,562.095,0.00135545,140.524,""
177206,24.5055,19.9997,0.00540506,564.411,0.00135127,141.103,""
177456,24.5074,20,0.00539506,565.759,0.00134877,141.44,""
177906,24.51,20.0001,0.00537728,568.183,0.00134432,142.046,""
178273,24.4839,20.0003,0.00536268,570.153,0.00134067,142.538,""
178710,24.5035,19.9999,0.0053456,572.494,0.0013364,143.123,""
179071,24.5225,19.9999,0.00533114,574.419,0.00133279,143.605,""
179480,24.5253,19.9998,0.00531528,576.6,0.00132882,144.15,""
179754,24.5132,19.9998,0.00530466,578.056,0.00132617,144.514,""
180099,24.5335,20.0001,0.00529126,579.882,0.00132282,144.97,""
180415,24.5418,19.9992,0.00527913,581.55,0.00131978,145.388,""
180816,24.5173,19.9992,0.0052635,583.665,0.00131587,145.916,""
181213,24.5405,20,0.00524817,585.75,0.00131204,146.437,""
181545,24.5358,19.9999,0.00523578,587.49,0.00130895,146.872,""
182098,24.5313,20.0006,0.0052148,590.383,0.0013037,147.596,""
182528,24.5178,19.9999,0.00519811,592.621,0.00129953,148.155,""
182833,24.5129,20,0.00518683,594.202,0.00129671,148.551,""
183150,24.5867,19.9998,0.00517493,595.845,0.00129373,148.961,""
183464,24.5523,19.9996,0.00516306,597.469,0.00129076,149.367,""
183742,24.5596,20,0.00515264,598.906,0.00128816,149.727,""
184045,24.6395,19.9999,0.00514153,600.463,0.00128538,150.116,""
184437,24.5727,20,0.00512711,602.475,0.00128178,150.619,""
184972,24.5495,19.9999,0.00510764,605.212,0.00127691,151.303,""
185319,24.5493,19.9997,0.00509502,606.985,0.00127376,151.746,""
185756,24.5308,19.9998,0.005079,609.209,0.00126975,152.302,""
186229,24.6027,20,0.00506177,611.603,0.00126544,152.901,""
186537,24.5815,20,0.00505116,613.161,0.00126279,153.29,""
186913,24.5522,20,0.00503768,615.061,0.00125942,153.765,""
187261,24.5832,19.9999,0.00502578,616.813,0.00125644,154.203,""
187668,24.5943,19.9998,0.00501137,618.853,0.00125284,154.713,""
188193,24.5693,20.0001,0.00499358,621.478,0.00124839,155.37,""
188705,24.615,19.9997,0.00497586,624.034,0.00124397,156.008,""
189182,24.6073,20.0001,0.00495972,626.401,0.00123993,156.6,""
189499,24.6133,20.0002,0.0049494,627.973,0.00123735,156.993,""
189998,24.6245,19.9999,0.00493294,630.438,0.00123324,157.61,""
190369,24.6129,19.9998,0.00492094,632.268,0.00123024,158.067,""
190807,24.6113,19.9999,0.00490645,634.417,0.00122661,158.604,""
191198,24.61,19.9999,0.00489421,636.334,0.00122355,159.083,""
191688,24.6724,19.9999,0.00487815,638.728,0.00121954,159.682,""
192002,24.6353,20,0.00486851,640.258,0.00121713,160.064,""
192383,24.6133,20,0.00485679,642.109,0.0012142,160.527,""
192773,24.6275,19.9997,0.00484485,644.005,0.00121121,161.001,""
193191,24.6294,20.0001,0.00483196,646.027,0.00120799,161.507,""
193504,24.6435,20.0002,0.00482223,647.536,0.00120556,161.884,""
193812,24.6553,19.9993,0.00481311,649.021,0.00120328,162.255,""
194204,24.6256,19.9998,0.00480112,650.906,0.00120028,162.727,""
194633,24.6517,19.9997,0.00478841,652.963,0.0011971,163.241,""
195050,24.6495,19.9997,0.0047761,654.953,0.00119403,163.738,""
195485,24.6445,20,0.00476342,657.032,0.00119085,164.258,""
195821,24.6286,19.9997,0.00475367,658.631,0.00118842,164.658,""
196290,24.6095,19.9996,0.00474011,660.857,0.00118503,165.214,""
196653,24.5704,19.9998,0.00472968,662.573,0.00118242,165.643,""
197020,24.5896,19.9999,0.00471939,664.309,0.00117985,166.077,""
197581,24.5782,19.9998,0.00470377,666.951,0.00117594,166.738,""
198095,24.6026,20.0002,0.0046893,669.366,0.00117232,167.341,""
198491,24.5842,19.9999,0.00467834,671.218,0.00116959,167.804,""
198996,24.5792,19.9999,0.00466428,673.58,0.00116607,168.395,""
199209,24.5635,19.9996,0.00465905,674.574,0.00116476,168.643,""
199528,24.5533,19.9999,0.0046496,676.055,0.0011624,169.014,""
199826,24.5465,19.9999,0.00464136,677.44,0.00116034,169.36,""
200407,24.5553,19.9998,0.00462531,680.135,0.00115633,170.034,""
200700,24.5565,20.0001,0.00461791,681.485,0.00115448,170.371,""
201034,24.52,19.9999,0.0046086,683.028,0.00115215,170.757,""
201439,24.5242,19.9999,0.00459781,684.894,0.00114945,171.223,""
201797,24.5133,19.9999,0.00458828,686.537,0.00114707,171.634,""
202179,24.5043,19.9994,0.00457803,688.288,0.00114451,172.072,""
202520,24.5113,20.0002,0.00456891,689.849,0.00114223,172.462,""
202894,24.5643,19.9999,0.004559,691.555,0.00113975,172.889,""
203356,24.5646,19.9998,0.00454649,693.657,0.00113662,173.414,""
203775,24.5325,19.9998,0.0045356,695.56,0.0011339,173.89,""
204181,24.5468,19.9998,0.0045253,697.398,0.00113132,174.35,""
204456,24.5097,19.9994,0.00451774,698.641,0.00112943,174.66,""
204878,24.5393,20,0.00450645,700.547,0.00112661,175.137,""
205230,24.5284,20.0001,0.00449773,702.132,0.00112443,175.533,""
205662,24.5065,19.9996,0.00448617,704.07,0.00112154,176.017,""
205917,24.5364,19.9999,0.00447956,705.216,0.00111989,176.304,""
206360,24.5174,19.9997,0.00446796,707.197,0.00111699,176.799,""
206795,24.5495,19.9999,0.00445693,709.139,0.00111423,177.285,""
207172,24.446,19.9999,0.00444704,710.816,0.00111176,177.704,""
207580,24.5148,19.9998,0.00443608,712.627,0.00110902,178.157,""
207912,24.4885,19.9997,0.0044272,714.098,0.0011068,178.525,""
208252,24.506,19.9997,0.00441817,715.602,0.00110454,178.901,""
208686,24.5271,19.9998,0.00440635,717.519,0.00110159,179.38,""
208979,24.5215,19.9998,0.00439907,718.806,0.00109977,179.702,""
209322,24.4571,20.0001,0.00439025,720.314,0.00109756,180.078,""
209735,24.4835,19.9998,0.00437949,722.127,0.00109487,180.532,""
210146,24.484,20,0.00436852,723.926,0.00109213,180.982,""
210526,24.4964,19.9999,0.00435873,725.582,0.00108968,181.395,""
210803,24.4634,19.9998,0.00435165,726.788,0.00108791,181.697,""
211207,24.4535,19.9998,0.00434098,728.544,0.00108525,182.136,""
211578,24.4703,19.9998,0.00433386,730.154,0.00108346,182.538,""
211961,24.4804,19.9999,0.00432047,731.812,0.00108012,182.953,""
212343,24.4262,19.9999,0.00431048,733.459,0.00107762,183.365,""
212744,24.4622,20.0002,0.00430027,735.184,0.00107507,183.796,""
213028,24.4588,19.9998,0.00429289,736.407,0.00107322,184.102,""
213350,24.4557,19.9999,0.00428433,737.785,0.00107108,184.446,""
213732,24.4232,19.9995,0.00427428,739.421,0.00106857,184.855,""
214167,24.4291,19.9998,0.00426234,741.28,0.00106559,185.32,""
214607,24.4273,20,0.00425061,743.15,0.00106265,185.787,""
214944,24.4606,19.9999,0.00424139,744.582,0.00106035,186.145,""
215316,24.4443,19.9999,0.0042316,746.157,0.0010579,186.539,""
215683,24.4227,20.0001,0.00422143,747.711,0.00105536,186.928,""
216081,24.4414,20,0.00421147,749.389,0.00105287,187.347,""
216519,24.4213,19.9999,0.00419891,751.227,0.00104973,187.807,""
216902,24.404,19.9997,0.00418823,752.834,0.00104706,188.208,""
217383,24.4569,19.9997,0.00417516,754.846,0.00104379,188.712,""
217851,24.4572,19.9998,0.00416205,756.795,0.00104051,189.199,""
218387,24.4109,19.9994,0.00414699,759.026,0.00103675,189.756,""
218700,24.4427,19.9999,0.00413804,760.319,0.00103451,190.08,""
219049,24.4271,20,0.0041284,761.761,0.0010321,190.44,""
219364,24.4189,19.9998,0.00411914,763.063,0.00102978,190.766,""
219669,24.4048,20,0.0041106,764.315,0.00102765,191.079,""
220187,24.4073,20,0.00409561,766.442,0.0010239,191.61,""
220646,24.4092,19.9998,0.00408192,768.318,0.00102048,192.079,""
221106,24.4321,19.9997,0.00406855,770.194,0.00101714,192.548,""
221549,24.3994,19.9999,0.00405548,771.992,0.00101387,192.998,""
221966,24.4404,19.9995,0.00404324,773.682,0.00101081,193.421,""
222471,24.4273,19.9998,0.00402828,775.721,0.00100707,193.93,""
222847,24.4668,20.0001,0.00401676,777.231,0.00100419,194.308,""
223233,24.4374,19.9996,0.00400543,778.781,0.00100136,194.695,""
223540,24.4392,19.9994,0.00399578,780.009,0.000998945,195.002,""
223996,24.3911,19.9999,0.00398167,781.826,0.000995417,195.456,""
224374,24.4121,19.9997,0.00397021,783.331,0.000992553,195.833,""
224726,24.4761,19.9999,0.00395925,784.726,0.000989812,196.181,""
225234,24.4259,20,0.00394323,786.735,0.000985809,196.684,""
225637,24.4243,19.9998,0.00393003,788.321,0.000982508,197.08,""
225975,24.472,19.9999,0.00391916,789.648,0.000979791,197.412,""
226340,24.4053,19.9998,0.0039081,791.073,0.000977024,197.768,""
226806,24.4066,20,0.00389249,792.894,0.000973122,198.223,""
227173,24.4195,19.9997,0.00388084,794.32,0.00097021,198.58,""
227532,24.4299,19.9996,0.003869,795.708,0.000967249,198.927,""
228008,24.3991,19.9996,0.0038528,797.549,0.000963199,199.387,""
228382,24.4036,20.0001,0.00384047,798.987,0.000960117,199.747,""
228793,24.4172,20,0.00382694,800.562,0.000956736,200.14,""
229150,24.4425,19.9999,0.00381464,801.926,0.000953659,200.481,""
229528,24.3839,20.0003,0.00380204,803.364,0.000950509,200.841,""
229901,24.3941,19.9993,0.00378944,804.781,0.000947361,201.195,""
230252,24.292,19.9994,0.00377738,806.109,0.000944344,201.527,""
230620,24.3966,19.9997,0.00376455,807.497,0.000941138,201.874,""
230940,24.3443,19.9997,0.00375386,808.701,0.000938465,202.175,""
231349,24.3725,19.9999,0.00373965,810.231,0.000934911,202.558,""
231733,24.3678,19.9999,0.0037261,811.666,0.000931524,202.917,""
232128,24.3811,20,0.00371217,813.135,0.000928043,203.284,""
232536,24.3628,19.9995,0.00369781,814.645,0.000924452,203.661,""
232938,24.3821,19.9997,0.00368343,816.13,0.000920856,204.033,""
233336,24.3588,19.9998,0.00366904,817.592,0.000917259,204.398,""
233795,24.3622,20.0005,0.00365278,819.273,0.000913195,204.818,""
234155,24.3309,19.9999,0.00363951,820.586,0.000909877,205.147,""
234513,24.4001,20.0001,0.0036266,821.885,0.00090665,205.471,""
234835,24.3706,20.0001,0.00361429,823.053,0.000903574,205.763,""
235247,24.3772,19.9998,0.00359876,824.539,0.000899689,206.135,""
235821,24.3758,19.9997,0.00357752,826.598,0.000894379,206.649,""
236231,24.3619,20,0.00356202,828.063,0.000890506,207.016,""
236590,24.3163,20.0001,0.00354897,829.337,0.000887242,207.334,""
236929,24.3068,19.9997,0.00353611,830.537,0.000884026,207.634,""
237319,24.3498,19.9996,0.00352128,831.916,0.000880319,207.979,""
237676,24.3602,19.9999,0.00350748,833.171,0.000876869,208.293,""
238148,24.3699,20.0007,0.00348955,834.819,0.000872388,208.705,""
238578,24.3471,19.9996,0.00347311,836.319,0.000868278,209.08,""
239102,24.3426,20,0.00345332,838.134,0.000863331,209.534,""
239391,24.323,19.9999,0.00344206,839.129,0.000860515,209.782,""
239757,24.3561,20,0.00342801,840.386,0.000857004,210.096,""
240134,24.3452,19.9994,0.00341333,841.677,0.000853332,210.419,""
240527,24.3556,19.9997,0.00339805,843.012,0.000849512,210.753,""
240900,24.3604,20.0001,0.00338835,844.28,0.000847088,211.07,""
241298,24.35,19.9997,0.00336708,845.626,0.000841771,211.407,""
241762,24.3574,20.0001,0.00334976,847.183,0.000837441,211.796,""
242238,24.3794,19.9999,0.00333189,848.775,0.000832973,212.194,""
242727,24.3648,20.0003,0.00331275,850.398,0.000828187,212.6,""
243149,24.3677,19.9996,0.00329641,851.793,0.000824103,212.948,""
243453,24.3699,20,0.00328414,852.794,0.000821034,213.199,""
243751,24.3968,20,0.00327275,853.771,0.000818188,213.443,""
244215,24.3554,20,0.00325427,855.286,0.000813569,213.822,""
244676,24.3633,19.9998,0.00323668,856.78,0.000809169,214.195,""
245006,24.3823,19.9995,0.0032235,857.847,0.000805875,214.462,""
245500,24.378,20.0001,0.00320424,859.436,0.00080106,214.859,""
245897,24.3563,20,0.0031883,860.704,0.000797075,215.176,""
246335,24.3557,19.9998,0.00317143,862.096,0.000792858,215.524,""
246625,24.3992,20,0.00316018,863.015,0.000790044,215.754,""
247075,24.3505,19.9998,0.0031424,864.433,0.000785599,216.108,""
247443,24.411,20,0.00312798,865.586,0.000781994,216.396,""
247879,24.4007,20.0001,0.00311119,866.947,0.000777797,216.737,""
248360,24.4626,19.9999,0.00309236,868.439,0.000773091,217.11,""
248812,24.4252,19.9999,0.00307471,869.833,0.000768677,217.458,""
249216,24.4709,19.9997,0.00305939,871.072,0.000764847,217.768,""
249517,24.4555,20,0.00304783,871.989,0.000761956,217.997,""
249831,24.4706,20.0001,0.00303599,872.946,0.000758998,218.237,""
250224,24.4537,19.9997,0.00302127,874.137,0.000755318,218.534,""
250685,24.4632,20.0004,0.00300346,875.524,0.000750865,218.881,""
251073,24.507,20.0001,0.00298879,876.688,0.000747198,219.172,""
251456,24.5114,19.9999,0.00297419,877.828,0.000743548,219.457,""
251955,24.5087,19.9999,0.00295536,879.308,0.000738839,219.827,""
252401,24.5134,19.9995,0.00293866,880.624,0.000734665,220.156,""
252849,24.4889,19.9999,0.00292197,881.934,0.000730494,220.483,""
253203,24.5072,19.9998,0.00290837,882.969,0.000727093,220.742,""
253730,24.5366,19.9998,0.00288882,884.495,0.000722205,221.124,""
254057,24.5079,19.9996,0.00287687,885.437,0.000719217,221.359,""
254513,24.5606,20.0001,0.00286018,886.747,0.000715044,221.687,""
255113,24.489,19.9998,0.0028384,888.456,0.0007096,222.114,""
255469,24.5298,20,0.0028254,889.463,0.00070635,222.366,""
255905,24.5332,19.9999,0.0028099,890.693,0.000702474,222.673,""
256407,24.5332,19.9999,0.00279111,892.098,0.000697777,223.025,""
256813,24.557,19.9998,0.00277702,893.228,0.000694256,223.307,""
257174,24.6807,20,0.00276418,894.228,0.000691046,223.557,""
257461,24.6162,20.0002,0.00275368,895.02,0.000688419,223.755,""
257917,24.5767,19.9998,0.0027381,896.273,0.000684525,224.068,""
258305,24.6187,19.9996,0.00272444,897.332,0.00068111,224.333,""
258800,24.6,20.0001,0.00270754,898.676,0.000676884,224.669,""
259202,24.636,19.9998,0.00269317,899.761,0.000673292,224.94,""
259628,24.6079,19.9998,0.002679,900.907,0.00066975,225.227,""
260035,24.5623,19.9999,0.00266517,901.993,0.000666293,225.498,""
260463,24.6017,19.9998,0.00265072,903.131,0.000662679,225.783,""
260889,24.6229,19.9999,0.00263659,904.259,0.000659147,226.065,""
261316,24.7259,19.9999,0.00262284,905.38,0.000655711,226.345,""
261699,24.7368,20.0003,0.00260983,906.383,0.000652457,226.596,""
262107,24.6717,20.0001,0.00259663,907.444,0.000649156,226.861,""
262502,24.6977,19.9998,0.00258423,908.469,0.000646057,227.117,""
262905,24.6678,20,0.00257098,909.506,0.000642746,227.376,""
263171,24.7072,19.9998,0.00256265,910.189,0.000640663,227.547,""
263578,24.6156,19.9999,0.00254973,911.229,0.000637431,227.807,""
263886,24.6655,19.9999,0.00254033,912.014,0.000635083,228.004,""
264279,24.6973,19.9996,0.00252833,913.011,0.000632083,228.253,""
264686,24.7719,20.0003,0.00251594,914.036,0.000628985,228.509,""
265023,24.7214,19.9999,0.00250567,914.882,0.000626417,228.721,""
265466,24.7177,19.9998,0.0024921,915.989,0.000623024,228.997,""
265726,24.7649,19.9998,0.00248412,916.636,0.00062103,229.159,""
265989,24.7729,19.9997,0.00247652,917.288,0.00061913,229.322,""
266374,24.8526,19.9996,0.00246554,918.24,0.000616384,229.56,""
266787,24.7792,20,0.0024528,919.257,0.000613199,229.814,""
267130,24.728,19.9998,0.00244343,920.094,0.000610857,230.024,""
267494,24.8133,20.0002,0.00243281,920.982,0.000608202,230.246,""
267823,24.8847,20,0.00242354,921.782,0.000605885,230.446,""
268271,24.7693,19.9999,0.00241087,922.866,0.000602718,230.716,""
268624,24.834,19.9999,0.00240087,923.713,0.000600217,230.928,""
268807,24.9119,20,0.00239582,924.152,0.000598954,231.038,""
268808,24.9139,20,NaN,NaN,NaN,NaN,"Ampoule removed"
268810,24.9221,20,NaN,NaN,NaN,NaN,""