File: TAInstCalorimetry/DATA/opc_3.csv
General Experiment Info
Bath temperature,20Â°C
,Sample - 213:2
Total mass,5.88g
Name,"Max"
,Component - OPC
Mass,4g
Name,"OPC"
ID,"42.5R CEM I"
Wizard Settings
Devices

"Time","Temperature","Heat flow","Heat","Normalized heat flow","Normalized heat","Time markers"
-7515.69,20,NaN,NaN,NaN,NaN,""
-7515.39,20,-3.13431e-06,NaN,-7.83577e-07,NaN,""
-7507.84,20,-3.32811e-06,NaN,-8.32027e-07,NaN,""
-7488.8,20,-2.44279e-06,NaN,-6.10699e-07,NaN,""
-7450.4,20,-2.63208e-06,NaN,-6.58021e-07,NaN,""
-7429.26,20,-1.87002e-06,NaN,-4.67504e-07,NaN,""
-7419.89,20,-1.12484e-06,NaN,-2.81211e-07,NaN,""
-7388.34,20,-7.32921e-07,NaN,-1.8323e-07,NaN,""
-7353.81,20,-1.09996e-06,NaN,-2.74989e-07,NaN,""
-7318.54,20,-5.65764e-07,NaN,-1.41441e-07,NaN,""
-7301.39,20,-1.44298e-06,NaN,-3.60744e-07,NaN,""
-7263.51,20,-1.16901e-06,NaN,-2.92252e-07,NaN,""
-7225.21,20,-3.09076e-06,NaN,-7.72689e-07,NaN,""
-7185.08,20,-2.77934e-06,NaN,-6.94835e-07,NaN,""
-7137.58,20,-7.47373e-07,NaN,-1.86843e-07,NaN,""
-7108.05,20,-4.78853e-07,NaN,-1.19713e-07,NaN,""
-7094.87,20,-1.20773e-06,NaN,-3.01933e-07,NaN,""
-7084,20,-9.00561e-07,NaN,-2.2514e-07,NaN,""
-7066.75,20,-1.10501e-06,NaN,-2.76253e-07,NaN,""
-7041.07,20,1.0338e-09,NaN,2.58451e-10,NaN,""
-7011.43,20,8.47424e-07,NaN,2.11856e-07,NaN,""
-6982.43,20,2.98003e-07,NaN,7.45009e-08,NaN,""
-6942.36,20,-1.7604e-07,NaN,-4.401e-08,NaN,""
-6912.34,20,3.55012e-07,NaN,8.8753e-08,NaN,""
-6891.41,20,-1.25753e-06,NaN,-3.14381e-07,NaN,""
-6863.81,20,-2.77485e-07,NaN,-6.93713e-08,NaN,""
-6822.79,20,5.46641e-07,NaN,1.3666e-07,NaN,""
-6804.23,20,2.42513e-07,NaN,6.06282e-08,NaN,""
-6781.76,20,7.18261e-07,NaN,1.79565e-07,NaN,""
-6735.85,20,3.58726e-07,NaN,8.96815e-08,NaN,""
-6703.64,20,-6.64995e-07,NaN,-1.66249e-07,NaN,""
-6552.89,20,-2.02538e-06,NaN,-5.06345e-07,NaN,""
-6506.16,20,-1.67376e-06,NaN,-4.18439e-07,NaN,""
-6486.05,20,-8.63226e-07,NaN,-2.15807e-07,NaN,""
-6477.07,20,-1.12359e-06,NaN,-2.80896e-07,NaN,""
-6465.3,20,-6.46252e-07,NaN,-1.61563e-07,NaN,""
-6441.5,20,-9.26266e-07,NaN,-2.31567e-07,NaN,""
-6412.75,20,4.25297e-07,NaN,1.06324e-07,NaN,""
-6375.25,20,7.83727e-07,NaN,1.95932e-07,NaN,""
-6343.36,20,1.08955e-06,NaN,2.72386e-07,NaN,""
-6335.32,20,1.75028e-06,NaN,4.37569e-07,NaN,""
-6307.46,20,1.53312e-06,NaN,3.83281e-07,NaN,""
-6280.25,20,2.05061e-06,NaN,5.12653e-07,NaN,""
-6240.04,20,1.22451e-06,NaN,3.06128e-07,NaN,""
-6215.85,20,1.59172e-06,NaN,3.97929e-07,NaN,""
-6196.9,20,9.92738e-07,NaN,2.48184e-07,NaN,""
-6161.77,20,2.0076e-06,NaN,5.01901e-07,NaN,""
-6126.56,20,4.56989e-07,NaN,1.14247e-07,NaN,""
-6094.5,20,8.11104e-07,NaN,2.02776e-07,NaN,""
-6075.07,20,-1.41942e-07,NaN,-3.54856e-08,NaN,""
-6036.59,20,2.24232e-06,NaN,5.6058e-07,NaN,""
-5999.41,20,2.71907e-06,NaN,6.79768e-07,NaN,""
-5975.91,20,1.60258e-06,NaN,4.00644e-07,NaN,""
-5932.39,20,1.51592e-06,NaN,3.7898e-07,NaN,""
-5886.05,20,2.79542e-06,NaN,6.98854e-07,NaN,""
-5844.4,20,2.40546e-06,NaN,6.01364e-07,NaN,""
-5787.08,20,1.93966e-06,NaN,4.84916e-07,NaN,""
-5771.73,20,1.02949e-06,NaN,2.57373e-07,NaN,""
-5748.39,20,1.16236e-06,NaN,2.90589e-07,NaN,""
-5724.73,20,4.97839e-07,NaN,1.2446e-07,NaN,""
-5715.39,20,6.64347e-07,NaN,1.66087e-07,NaN,""
0,20,NaN,NaN,NaN,NaN,"Reaction start"
0.028142,20,NaN,NaN,NaN,NaN,"Measuring position"
1.08804,20,NaN,NaN,NaN,NaN,"Signal correct"
1.61315,20,0.104828,0.0539811,0.0262069,0.0134953,""
13.6131,20,0.195714,1.86719,0.0489286,0.466796,""
24.6131,20,0.265657,4.41834,0.0664142,1.10458,""
36.6131,20,0.321901,7.96085,0.0804753,1.99021,""
48.6131,20,0.359205,12.0623,0.0898013,3.01558,""
59.6131,20,0.380055,16.1369,0.0950138,4.03424,""
71.6131,20,0.391521,20.7747,0.0978803,5.19367,""
83.6131,20,0.394321,25.496,0.0985804,6.374,""
98.4881,20,0.38958,31.335,0.097395,7.83374,""
112.613,20,0.379845,36.7738,0.0949612,9.19346,""
126.738,20,0.366854,42.05,0.0917135,10.5125,""
145.176,20,0.347416,48.6377,0.0868541,12.1594,""
167.113,20,0.323042,55.9923,0.0807605,13.9981,""
193.488,20,0.294307,64.1306,0.0735768,16.0327,""
214.113,20,0.272933,69.9782,0.0682333,17.4945,""
235.176,20,0.252552,75.5099,0.0631381,18.8775,""
255.613,20,0.234217,80.4817,0.0585542,20.1204,""
277.051,20,0.216459,85.3098,0.0541146,21.3275,""
297.613,20,0.200699,89.5969,0.0501748,22.3992,""
318.488,20,0.185968,93.6305,0.046492,23.4076,""
339.113,20,0.172554,97.326,0.0431386,24.3315,""
360.051,20,0.160013,100.806,0.0400033,25.2014,""
379.613,20,0.149193,103.829,0.0372981,25.9572,""
400.488,20,0.138527,106.831,0.0346317,26.7076,""
420.613,20,0.128985,109.521,0.0322462,27.3803,""
440.738,20,0.120179,112.027,0.0300447,28.0068,""
467.113,20,0.109637,115.056,0.0274092,28.7639,""
487.738,20,0.102073,117.238,0.0255182,29.3095,""
520.113,20,0.0913639,120.366,0.022841,30.0914,""
541.051,20,0.0850765,122.212,0.0212691,30.553,""
562.613,20,0.079118,123.981,0.0197795,30.9954,""
592.113,20,0.0717046,126.204,0.0179262,31.551,""
617.113,20,0.0660316,127.925,0.0165079,31.9812,""
643.738,20,0.0605464,129.609,0.0151366,32.4021,""
670.535,20,0.0555401,131.163,0.013885,32.7907,""
711.613,20,0.048742,133.301,0.0121855,33.3253,""
753.316,20,0.0428029,135.207,0.0107007,33.8017,""
801.035,20,0.0370147,137.107,0.00925368,34.2769,""
841.801,20,0.0327967,138.528,0.00819917,34.6321,""
884.941,20,0.0289458,139.858,0.00723645,34.9645,""
932.113,20,0.0253458,141.136,0.00633645,35.2841,""
984.019,20,0.0220077,142.363,0.00550193,35.5907,""
1040.07,20,0.0190128,143.51,0.0047532,35.8775,""
1098.19,20,0.0164524,144.538,0.0041131,36.1346,""
1154.46,20,0.0144049,145.405,0.00360123,36.3511,""
1224.98,20,0.0123231,146.344,0.00308077,36.5861,""
1299.08,20,0.0105872,147.191,0.00264681,36.7977,""
1376.97,20,0.00915065,147.957,0.00228766,36.9893,""
1450.11,20,0.0080775,148.586,0.00201937,37.1464,""
1558.15,20,0.00686282,149.39,0.00171571,37.3474,""
1658.42,20,0.00602197,150.034,0.00150549,37.5084,""
1770.21,20,0.00531534,150.665,0.00132884,37.6664,""
1892.87,20,0.00473819,151.28,0.00118455,37.8201,""
2020.11,20,0.00429057,151.854,0.00107264,37.9634,""
2188.82,20,0.00385421,152.538,0.000963553,38.1346,""
2373.38,20,0.00351611,153.217,0.000879028,38.3042,""
2627.62,20,0.00318776,154.067,0.000796939,38.5166,""
2899.76,20,0.00293646,154.898,0.000734116,38.7245,""
3235.08,20,0.0027103,155.846,0.000677576,38.9614,""
3698.18,20,0.00243068,157.033,0.000607669,39.2582,""
4077.4,20,0.00225896,157.921,0.00056474,39.4803,""
4429.11,20,0.00212842,158.692,0.000532104,39.673,""
4751.11,20,0.00202678,159.36,0.000506694,39.8401,""
5234.01,20,0.00189978,160.307,0.000474944,40.0768,""
5619.08,20,0.00181379,161.022,0.000453447,40.2554,""
5821.69,20,0.0017738,161.385,0.000443451,40.3463,""
6240.35,20,0.00170281,162.112,0.000425703,40.5281,""
6570.11,20,0.00165586,162.666,0.000413965,40.6665,""
7009.97,20,0.00160414,163.382,0.000401035,40.8456,""
7259.29,20,0.00157979,163.779,0.000394947,40.9448,""
7614.82,20,0.00154698,164.335,0.000386744,41.0838,""
7868.5,20,0.00152258,164.725,0.000380645,41.1812,""
8180.88,20,0.00150595,165.197,0.000376488,41.2992,""
8477.83,20,0.00151536,165.645,0.00037884,41.4112,""
9156.6,20,0.00158152,166.694,0.000395381,41.6736,""
9398.79,20,0.00160781,167.081,0.000401951,41.7701,""
10101.5,20,0.00167573,168.235,0.000418933,42.0589,""
10559.6,20,0.00171393,169.012,0.000428482,42.253,""
10981.4,20,0.00174642,169.742,0.000436606,42.4354,""
11334.9,20,0.00177525,170.364,0.000443814,42.591,""
11673,20,0.00180266,170.969,0.000450664,42.7422,""
12078.8,20,0.00183718,171.707,0.000459295,42.9269,""
12506.7,20,0.00187456,172.501,0.000468641,43.1254,""
12998.3,20,0.00192073,173.434,0.000480183,43.3585,""
13317.8,20,0.00195173,174.053,0.000487933,43.5132,""
13872.1,20,0.00200912,175.15,0.00050228,43.7876,""
14247.4,20,0.00205096,175.912,0.00051274,43.9781,""
14715.1,20,0.00210535,176.884,0.000526338,44.221,""
15167.9,20,0.00216081,177.85,0.000540203,44.4624,""
15664,20,0.00222391,178.937,0.000555977,44.7343,""
16298.6,20,0.00231178,180.376,0.000577945,45.094,""
16851.9,20,0.00239249,181.677,0.000598122,45.4194,""
17380.5,20,0.00247276,182.963,0.000618189,45.7408,""
17796.8,20,0.00253983,184.007,0.000634958,46.0017,""
18127.3,20,0.00259438,184.855,0.000648595,46.2137,""
18407.6,20,0.0026406,185.589,0.000660149,46.3971,""
18717.8,20,0.00269502,186.416,0.000673755,46.604,""
19126.6,20,0.00276666,187.532,0.000691666,46.8831,""
19441.8,20,0.00282422,188.413,0.000706054,47.1033,""
19712.2,20,0.0028735,189.184,0.000718374,47.2959,""
19977.2,20,0.00292343,189.952,0.000730858,47.488,""
20431.5,20,0.00301194,191.3,0.000752984,47.8249,""
20768.3,20,0.00307738,192.325,0.000769345,48.0813,""
20984.1,20,0.00312143,192.994,0.000780358,48.2486,""
21403,20,0.00320753,194.32,0.000801883,48.5799,""
22329.2,20,0.00340479,197.381,0.000851198,49.3452,""
22681.9,20,0.00348283,198.595,0.000870706,49.6488,""
23019.8,20,0.00355797,199.785,0.000889493,49.9462,""
23244.5,20,0.00360939,200.59,0.000902348,50.1474,""
23570.3,20,0.00368328,201.778,0.000920819,50.4445,""
23866.1,20,0.00375251,202.878,0.000938127,50.7195,""
24095.2,20,0.00380713,203.744,0.000951782,50.936,""
24353.1,20,0.00386815,204.734,0.000967038,51.1834,""
24570.1,20,0.00392114,205.579,0.000980286,51.3947,""
24772.2,20,0.00396922,206.376,0.000992305,51.594,""
24965.3,20,0.00401732,207.147,0.00100433,51.7868,""
25210.2,20,0.00407668,208.138,0.00101917,52.0346,""
25342.4,20,0.00411037,208.679,0.00102759,52.1698,""
25651.9,20,0.00418639,209.963,0.0010466,52.4908,""
26103.2,20,0.00430104,211.878,0.00107526,52.9695,""
26364.6,20,0.00436655,213.011,0.00109164,53.2528,""
26643.3,20,0.00443664,214.238,0.00110916,53.5595,""
27047,20,0.00453932,216.05,0.00113483,54.0124,""
27378,20,0.00462257,217.566,0.00115564,54.3915,""
27704.7,20,0.00470587,219.09,0.00117647,54.7724,""
27991.9,20,0.00477859,220.452,0.00119465,55.1129,""
28686.6,20,0.0049557,223.833,0.00123892,55.9582,""
29227.6,20,0.0050937,226.551,0.00127343,56.6379,""
29635.7,20,0.00519695,228.651,0.00129924,57.1628,""
30169.1,20,0.00533237,231.459,0.00133309,57.8648,""
30474,20,0.00540928,233.097,0.00135232,58.2743,""
30753.5,20,0.00547907,234.619,0.00136977,58.6547,""
31079.1,20,0.00556104,236.416,0.00139026,59.104,""
31361.9,20,0.00563101,237.999,0.00140775,59.4997,""
31799.5,20,0.00573787,240.486,0.00143447,60.1215,""
32259.3,20,0.00584942,243.15,0.00146235,60.7876,""
32640.1,20,0.00593997,245.395,0.00148499,61.3488,""
32901.2,20,0.00600236,246.954,0.00150059,61.7386,""
33154.1,20,0.00606046,248.48,0.00151511,62.1199,""
33452.5,20,0.00612911,250.298,0.00153228,62.5745,""
34295.1,20,0.00631908,255.543,0.00157977,63.8858,""
34732.3,20,0.00641387,258.326,0.00160347,64.5816,""
35108.3,20,0.0064946,260.753,0.00162365,65.1883,""
35470.8,20,0.00656941,263.122,0.00164235,65.7804,""
35838.8,20,0.00664522,265.553,0.00166131,66.3882,""
36241.5,20,0.00672576,268.245,0.00168144,67.0613,""
36516.4,20,0.00677857,270.101,0.00169464,67.5253,""
36754.3,20,0.00682491,271.719,0.00170623,67.9298,""
36980.8,20,0.00686708,273.27,0.00171677,68.3175,""
37304.3,20,0.0069273,275.501,0.00173182,68.8753,""
37592.2,20,0.00697926,277.503,0.00174482,69.3758,""
37826.7,20,0.00702083,279.145,0.00175521,69.7863,""
38283.6,20,0.00709873,282.371,0.00177468,70.5927,""
38824.1,20,0.00718579,286.231,0.00179645,71.5578,""
39323.2,20,0.00726308,289.837,0.00181577,72.4593,""
39592.6,20,0.00730203,291.799,0.00182551,72.9498,""
40084.6,20,0.0073721,295.409,0.00184302,73.8524,""
40443.8,20,0.00741977,298.066,0.00185494,74.5164,""
40648.2,20,0.00744689,299.585,0.00186172,74.8963,""
41229.8,20,0.00751802,303.937,0.00187951,75.9844,""
41701.9,20,0.00757229,307.499,0.00189307,76.8748,""
42070.4,20,0.00761135,310.297,0.00190284,77.5742,""
42889.2,20,0.00769079,316.563,0.0019227,79.1407,""
43352.6,20,0.00773185,320.136,0.00193296,80.0341,""
43969.9,20,0.00778052,324.924,0.00194513,81.2311,""
44609.1,20,0.00782358,329.912,0.0019559,82.478,""
44835.1,20,0.0078386,331.682,0.00195965,82.9205,""
45461.5,20,0.00787405,336.603,0.00196851,84.1507,""
45850.7,20,0.00789314,339.671,0.00197328,84.9178,""
46223.8,20,0.0079096,342.62,0.0019774,85.6549,""
46507.7,20,0.00792119,344.866,0.0019803,86.2166,""
46906.3,20,0.00793453,348.027,0.00198363,87.0067,""
47193.8,20,0.00794419,350.309,0.00198605,87.5773,""
47550.7,20,0.00795385,353.146,0.00198846,88.2866,""
47795.3,20,0.0079585,355.092,0.00198962,88.773,""
48581.1,20,0.00797234,361.352,0.00199309,90.3381,""
48790.9,20,0.00797453,363.025,0.00199363,90.7562,""
49073.1,20,0.00797846,365.276,0.00199462,91.319,""
49400.3,20,0.00798095,367.887,0.00199524,91.9717,""
49697,20,0.00798334,370.255,0.00199584,92.5638,""
49897.8,20,0.0079837,371.858,0.00199593,92.9645,""
50158.8,20,0.00798517,373.942,0.00199629,93.4854,""
50815.9,20,0.00798921,379.191,0.0019973,94.7977,""
51159.7,20,0.00799304,381.938,0.00199826,95.4844,""
51539.4,20,0.0080013,384.974,0.00200032,96.2435,""
52023.2,20,0.00801574,388.849,0.00200393,97.2121,""
52403.4,20,0.00803386,391.9,0.00200846,97.9749,""
52611.1,20,0.00804555,393.569,0.00201139,98.3923,""
52897.8,20,0.00806453,395.878,0.00201613,98.9696,""
53123.7,20,0.00808174,397.702,0.00202044,99.4255,""
53646.7,20,0.00812083,401.94,0.00203021,100.485,""
54027.5,20,0.00814703,405.037,0.00203676,101.259,""
54403.7,20,0.00816858,408.106,0.00204215,102.026,""
54752.2,20,0.0081837,410.955,0.00204593,102.739,""
55237,20,0.0082005,414.927,0.00205012,103.732,""
55896.3,20,0.00821429,420.338,0.00205357,105.085,""
56535.8,20,0.00821648,425.593,0.00205412,106.398,""
56760.7,20,0.00821463,427.44,0.00205366,106.86,""
56984.4,20,0.00821161,429.278,0.0020529,107.319,""
57273.1,20,0.00820701,431.648,0.00205175,107.912,""
57624.9,20,0.00819775,434.533,0.00204944,108.633,""
57883.7,20,0.00818959,436.654,0.0020474,109.164,""
58222.6,20,0.00817757,439.428,0.00204439,109.857,""
58554.4,20,0.00816522,442.139,0.0020413,110.535,""
59241.2,20,0.00813418,447.736,0.00203355,111.934,""
59697.7,20,0.00811058,451.445,0.00202765,112.861,""
59993,20,0.00809482,453.838,0.00202371,113.459,""
60581.4,20,0.00805941,458.59,0.00201485,114.647,""
61159.6,20,0.00802255,463.239,0.00200564,115.81,""
61587.1,20,0.00799382,466.662,0.00199845,116.666,""
61867.3,20,0.00797376,468.9,0.00199344,117.225,""
62294.2,20,0.00794322,472.297,0.00198581,118.074,""
62760.3,20,0.00790851,475.991,0.00197713,118.998,""
63144.5,20,0.00787951,479.024,0.00196988,119.756,""
63384.1,20,0.00786024,480.91,0.00196506,120.228,""
63646.8,20,0.00783875,482.972,0.00195969,120.743,""
64133.5,20,0.00780003,486.777,0.00195001,121.694,""
64396.2,20,0.00777769,488.824,0.00194442,122.206,""
64844.6,20,0.00773967,492.303,0.00193492,123.076,""
65140.7,20,0.00771501,494.591,0.00192875,123.648,""
65642.3,20,0.00767156,498.45,0.00191789,124.613,""
65899.3,20,0.00764875,500.419,0.00191219,125.105,""
66174.1,20,0.00762449,502.517,0.00190612,125.629,""
66680,20,0.00758128,506.364,0.00189532,126.591,""
66910.7,20,0.00756143,508.111,0.00189036,127.028,""
67374.3,20,0.00752064,511.606,0.00188016,127.902,""
67941,20,0.00746929,515.854,0.00186732,128.963,""
68198.7,20,0.00744571,517.776,0.00186143,129.444,""
68476.8,20,0.0074209,519.843,0.00185523,129.961,""
68742.2,20,0.00739669,521.809,0.00184917,130.452,""
69007.6,20,0.00737235,523.768,0.00184309,130.942,""
69872,20,0.00729233,530.107,0.00182308,132.527,""
70193,20,0.00726213,532.443,0.00181553,133.111,""
70592.1,20,0.00722506,535.334,0.00180626,133.833,""
71010.4,20,0.00718483,538.347,0.00179621,134.587,""
71265.3,20,0.00716008,540.176,0.00179002,135.044,""
71658.5,20,0.00712334,542.984,0.00178084,135.746,""
72164.4,20,0.00707471,546.575,0.00176868,136.644,""
72597.8,20,0.00703371,549.633,0.00175843,137.408,""
72952.1,20,0.00700013,552.118,0.00175003,138.03,""
73279.6,20,0.00696926,554.406,0.00174231,138.602,""
73702,20,0.00692915,557.341,0.00173229,139.335,""
74051.9,20,0.0068962,559.76,0.00172405,139.94,""
74299.7,20,0.00687292,561.466,0.00171823,140.367,""
74802.4,20,0.00682418,564.909,0.00170605,141.227,""
75178.3,20,0.00678757,567.467,0.00169689,141.867,""
75424.6,20,0.00676375,569.136,0.00169094,142.284,""
75686.5,20,0.00673904,570.904,0.00168476,142.726,""
76164.1,20,0.00669261,574.111,0.00167315,143.528,""
76563,20,0.00665424,576.774,0.00166356,144.193,""
77169.9,20,0.0065962,580.794,0.00164905,145.199,""
77493.5,20,0.0065644,582.924,0.0016411,145.731,""
77965,20,0.00651883,586.008,0.00162971,146.502,""
78248.8,20,0.00649098,587.854,0.00162275,146.964,""
78644.1,20,0.0064521,590.413,0.00161303,147.603,""
79253.7,20,0.00639165,594.327,0.00159791,148.582,""
79521.3,20,0.00636594,596.034,0.00159148,149.009,""
79822.8,20,0.0063355,597.949,0.00158387,149.487,""
80221.3,20,0.00629677,600.466,0.00157419,150.117,""
80612.5,20,0.00625753,602.922,0.00156438,150.73,""
80828.3,20,0.00623652,604.269,0.00155913,151.067,""
81189.2,20,0.00620085,606.514,0.00155021,151.629,""
81461.4,20,0.00617464,608.199,0.00154366,152.05,""
81960.6,20,0.00612632,611.268,0.00153158,152.817,""
82602.9,20,0.0060625,615.183,0.00151562,153.796,""
82884.7,20,0.00603586,616.887,0.00150897,154.222,""
83154.3,20,0.00600917,618.512,0.00150229,154.628,""
83531.4,20,0.00597276,620.771,0.00149319,155.193,""
83811.9,20,0.00594642,622.442,0.00148661,155.611,""
84120.4,20,0.00591708,624.272,0.00147927,156.068,""
84650.7,20,0.0058674,627.397,0.00146685,156.849,""
84922.1,20,0.00584186,628.986,0.00146047,157.246,""
85212.1,20,0.00581484,630.676,0.00145371,157.669,""
85558.7,20,0.00578086,632.686,0.00144521,158.171,""
85891.1,20,0.00574998,634.602,0.00143749,158.65,""
86257.7,20,0.00571507,636.703,0.00142877,159.176,""
86540.6,20,0.00568845,638.317,0.00142211,159.579,""
86876.3,20,0.00565773,640.221,0.00141443,160.055,""
87296.8,20,0.00561792,642.592,0.00140448,160.648,""
88193.5,20,0.00553464,647.592,0.00138366,161.898,""
88777.7,20,0.00548228,650.81,0.00137057,162.702,""
89038.2,20,0.00545844,652.235,0.00136461,163.059,""
89438.4,20,0.00542241,654.412,0.0013556,163.603,""
89851.2,20,0.00538624,656.643,0.00134656,164.161,""
90225.4,20,0.00535336,658.653,0.00133834,164.663,""
90430,20,0.00533476,659.746,0.00133369,164.937,""
90774.1,20,0.00530451,661.577,0.00132613,165.394,""
91421.4,20,0.00524968,664.992,0.00131242,166.248,""
91610.3,20,0.00523333,665.983,0.00130833,166.496,""
91902.8,20,0.00520842,667.51,0.0013021,166.877,""
92248.2,20,0.00517854,669.304,0.00129463,167.326,""
92570.1,20,0.00515095,670.966,0.00128774,167.741,""
92867.6,20,0.00512556,672.495,0.00128139,168.124,""
93236.8,20,0.00509413,674.381,0.00127353,168.595,""
93593.4,20,0.00506406,676.192,0.00126602,169.048,""
94130.3,20,0.00502009,678.899,0.00125502,169.725,""
94533.5,20,0.00498705,680.917,0.00124676,170.229,""
94971.2,20,0.00495214,683.092,0.00123803,170.773,""
95248.6,20,0.00492981,684.463,0.00123245,171.116,""
95713.3,20,0.00489367,686.745,0.00122342,171.686,""
95948.2,20,0.00487539,687.893,0.00121885,171.973,""
96305.6,20,0.00484784,689.63,0.00121196,172.408,""
96603,20,0.0048255,691.069,0.00120638,172.767,""
96899.4,20,0.00480262,692.496,0.00120066,173.124,""
97375,20,0.00476703,694.771,0.00119176,173.693,""
97666.3,20,0.00474587,696.157,0.00118647,174.039,""
98020.5,20,0.00472148,697.833,0.00118037,174.458,""
98280.4,20,0.00470273,699.058,0.00117568,174.764,""
98703.3,20,0.00467194,701.041,0.00116799,175.26,""
99182.8,20,0.00463825,703.273,0.00115956,175.818,""
99554.2,20,0.00461288,704.991,0.00115322,176.248,""
99838.1,20,0.0045925,706.297,0.00114813,176.574,""
100279,20,0.0045631,708.314,0.00114078,177.078,""
100718,20,0.00453369,710.311,0.00113342,177.578,""
101009,20,0.00451397,711.627,0.00112849,177.907,""
101226,20,0.0044984,712.607,0.0011246,178.152,""
101619,20,0.00447265,714.371,0.00111816,178.593,""
102001,20,0.00444731,716.074,0.00111183,179.019,""
102262,20,0.00443111,717.231,0.00110778,179.308,""
102609,20,0.0044092,718.764,0.0011023,179.691,""
102942,20,0.0043879,720.229,0.00109697,180.057,""
103421,20,0.00435768,722.325,0.00108942,180.581,""
103762,20,0.00433704,723.806,0.00108426,180.951,""
104140,20,0.00431345,725.441,0.00107836,181.36,""
104633,20,0.00428443,727.563,0.00107111,181.891,""
104986,20,0.00426243,729.071,0.00106561,182.268,""
105299,20,0.00424408,730.399,0.00106102,182.6,""
105617,20,0.00422559,731.749,0.0010564,182.937,""
105891,20,0.0042093,732.901,0.00105232,183.225,""
106230,20,0.00418867,734.326,0.00104717,183.582,""
106616,20,0.00416704,735.937,0.00104176,183.984,""
106886,20,0.00414994,737.062,0.00103748,184.265,""
107246,20,0.00413083,738.551,0.00103271,184.638,""
107627,20,0.00410956,740.121,0.00102739,185.03,""
107975,20,0.00408987,741.548,0.00102247,185.387,""
108240,20,0.00407524,742.629,0.00101881,185.657,""
108498,20,0.00406026,743.678,0.00101506,185.919,""
108728,20,0.00404858,744.611,0.00101215,186.153,""
109042,20,0.00403177,745.881,0.00100794,186.47,""
109274,20,0.00401847,746.815,0.00100462,186.704,""
109632,20,0.00400004,748.251,0.00100001,187.063,""
109781,20,0.00399283,748.846,0.000998207,187.212,""
110059,20,0.00397861,749.953,0.000994653,187.488,""
110291,20,0.00396651,750.876,0.000991627,187.719,""
110578,20,0.00395113,752.01,0.000987781,188.002,""
110865,20,0.0039361,753.142,0.000984025,188.286,""
111064,20,0.00392662,753.924,0.000981656,188.481,""
111355,20,0.00391114,755.064,0.000977786,188.766,""
111632,20,0.00389743,756.148,0.000974358,189.037,""
111892,20,0.00388439,757.157,0.000971099,189.289,""
112241,20,0.00386768,758.511,0.000966919,189.628,""
112510,20,0.00385433,759.548,0.000963582,189.887,""
112904,20,0.00383632,761.066,0.00095908,190.266,""
113155,20,0.00382345,762.028,0.000955863,190.507,""
113908,20,0.00378731,764.893,0.000946827,191.223,""
114229,20,0.00377309,766.106,0.000943273,191.526,""
114642,20,0.00375226,767.66,0.000938065,191.915,""
115051,20,0.00373437,769.191,0.000933593,192.298,""
115409,20,0.00371738,770.523,0.000929346,192.631,""
115623,20,0.00370795,771.32,0.000926987,192.83,""
115908,20,0.00369387,772.372,0.000923468,193.093,""
116243,20,0.00367819,773.607,0.000919546,193.402,""
116555,20,0.00366482,774.755,0.000916206,193.689,""
116874,20,0.00364988,775.922,0.000912471,193.981,""
117122,20,0.00364006,776.826,0.000910015,194.207,""
117404,20,0.00362778,777.849,0.000906946,194.462,""
117926,20,0.00360544,779.737,0.00090136,194.934,""
118239,20,0.00359282,780.863,0.000898206,195.216,""
118418,20,0.00358412,781.507,0.00089603,195.377,""
118755,20,0.00357048,782.711,0.00089262,195.678,""
119037,20,0.0035581,783.719,0.000889525,195.93,""
119372,20,0.00354414,784.908,0.000886035,196.227,""
119864,20,0.00352375,786.645,0.000880937,196.661,""
120102,20,0.0035134,787.483,0.00087835,196.871,""
120296,20,0.00350506,788.164,0.000876266,197.041,""
120723,20,0.00348767,789.656,0.000871917,197.414,""
121404,20,0.00346004,792.023,0.00086501,198.006,""
121748,20,0.00344586,793.211,0.000861466,198.303,""
122171,20,0.00342896,794.666,0.00085724,198.666,""
122464,20,0.00341819,795.669,0.000854548,198.917,""
122974,20,0.00339747,797.407,0.000849368,199.352,""
123376,20,0.003381,798.769,0.000845251,199.692,""
123757,20,0.00336697,800.053,0.000841742,200.013,""
124084,20,0.00335454,801.152,0.000838635,200.288,""
124336,20,0.00334454,801.997,0.000836135,200.499,""
124650,20,0.00333193,803.044,0.000832983,200.761,""
125106,20,0.00331498,804.56,0.000828744,201.14,""
125680,20,0.00329357,806.456,0.000823392,201.614,""
126057,20,0.00327906,807.696,0.000819766,201.924,""
126403,20,0.00326573,808.829,0.000816432,202.207,""
126628,20,0.00325763,809.561,0.000814407,202.39,""
127050,20,0.00324133,810.933,0.000810332,202.733,""
127339,20,0.00323131,811.867,0.000807827,202.967,""
127695,20,0.00321841,813.017,0.000804602,203.254,""
128143,20,0.00320225,814.456,0.000800562,203.614,""
128551,20,0.00318709,815.758,0.000796773,203.94,""
128843,20,0.00317701,816.688,0.000794253,204.172,""
129199,20,0.00316362,817.817,0.000790906,204.454,""
129526,20,0.00315191,818.847,0.000787977,204.712,""
129889,20,0.00313875,819.99,0.000784689,204.998,""
130357,20,0.00312236,821.455,0.00078059,205.364,""
130746,20,0.00310876,822.667,0.00077719,205.667,""
131059,20,0.00309767,823.64,0.000774418,205.91,""
131438,20,0.00308505,824.812,0.000771263,206.203,""
131722,20,0.00307491,825.686,0.000768728,206.421,""
132020,20,0.0030648,826.601,0.0007662,206.65,""
132328,20,0.0030548,827.544,0.000763701,206.886,""
132973,20,0.00303239,829.507,0.000758097,207.377,""
133553,20,0.00301329,831.259,0.000753323,207.815,""
133992,20,0.00299858,832.577,0.000749645,208.144,""
134274,20,0.00298922,833.421,0.000747305,208.355,""
134710,20,0.0029744,834.723,0.000743599,208.681,""
135180,20,0.00295823,836.117,0.000739557,209.029,""
135559,20,0.00294721,837.236,0.000736803,209.309,""
135833,20,0.00293748,838.042,0.000734369,209.51,""
136017,20,0.00293176,838.583,0.00073294,209.646,""
136208,20,0.00292601,839.142,0.000731502,209.786,""
136615,20,0.00291284,840.328,0.00072821,210.082,""
137369,20,0.00288829,842.515,0.000722072,210.629,""
137737,20,0.00287659,843.577,0.000719147,210.894,""
138256,20,0.00286193,845.067,0.000715484,211.267,""
138473,20,0.00285295,845.686,0.000713237,211.422,""
138778,20,0.00284354,846.554,0.000710886,211.639,""
139284,20,0.00282777,847.991,0.000706941,211.998,""
139864,20,0.00281064,849.624,0.00070266,212.406,""
140247,20,0.00279658,850.698,0.000699146,212.674,""
141132,20,0.00277002,853.16,0.000692504,213.29,""
141412,20,0.00276117,853.935,0.000690293,213.484,""
141701,20,0.00275231,854.733,0.000688078,213.683,""
142063,20,0.00274158,855.727,0.000685396,213.932,""
142397,20,0.00273157,856.641,0.000682894,214.16,""
142901,20,0.00271663,858.014,0.000679157,214.504,""
143225,20,0.0027076,858.893,0.000676901,214.723,""
143507,20,0.00269916,859.654,0.000674791,214.913,""
143970,20,0.00268499,860.9,0.000671246,215.225,""
144422,20,0.00267129,862.112,0.000667822,215.528,""
145110,20,0.00265279,863.943,0.000663198,215.986,""
145512,20,0.00264015,865.007,0.000660037,216.252,""
145774,20,0.0026329,865.698,0.000658225,216.425,""
146179,20,0.00262165,866.763,0.000655412,216.691,""
146571,20,0.00261048,867.788,0.000652621,216.947,""
146841,20,0.00260428,868.492,0.00065107,217.123,""
147135,20,0.00259558,869.256,0.000648896,217.314,""
147640,20,0.00257997,870.565,0.000644994,217.641,""
148159,20,0.002567,871.9,0.00064175,217.975,""
148456,20,0.00255971,872.662,0.000639927,218.165,""
148816,20,0.0025492,873.58,0.0006373,218.395,""
149091,20,0.00254204,874.281,0.00063551,218.57,""
149523,20,0.00252996,875.377,0.00063249,218.844,""
150054,20,0.00251631,876.717,0.000629078,219.179,""
150377,20,0.00250822,877.528,0.000627056,219.382,""
150722,20,0.00249856,878.392,0.000624639,219.598,""
150978,20,0.00249253,879.029,0.000623133,219.757,""
151257,20,0.00248564,879.725,0.00062141,219.931,""
151540,20,0.0024772,880.428,0.000619299,220.107,""
151889,20,0.00246803,881.29,0.000617008,220.322,""
152195,20,0.00246058,882.043,0.000615145,220.511,""
152574,20,0.00245093,882.975,0.000612732,220.744,""
152955,20,0.00244042,883.907,0.000610105,220.977,""
153269,20,0.00243205,884.671,0.000608013,221.168,""
153753,20,0.00241997,885.846,0.000604992,221.462,""
154079,20,0.00241154,886.633,0.000602886,221.658,""
154362,20,0.00240507,887.316,0.000601267,221.829,""
154757,20,0.00239396,888.262,0.00059849,222.066,""
155092,20,0.00238544,889.064,0.00059636,222.266,""
155683,20,0.00237,890.468,0.0005925,222.617,""
156041,20,0.00236225,891.316,0.000590564,222.829,""
156468,20,0.00235148,892.321,0.000587871,223.08,""
156873,20,0.00234109,893.273,0.000585271,223.318,""
157370,20,0.00232993,894.434,0.000582483,223.608,""
157842,20,0.00231846,895.53,0.000579616,223.882,""
158091,20,0.00231251,896.106,0.000578127,224.027,""
158395,20,0.00230503,896.809,0.000576259,224.202,""
158734,20,0.00229679,897.588,0.000574197,224.397,""
159028,20,0.0022901,898.263,0.000572526,224.566,""
159432,20,0.0022805,899.186,0.000570124,224.797,""
159946,20,0.0022682,900.354,0.000567051,225.089,""
160356,20,0.00225917,901.283,0.000564793,225.321,""
160644,20,0.00225154,901.933,0.000562884,225.483,""
161038,20,0.00224291,902.818,0.000560728,225.705,""
161633,20,0.00222824,904.147,0.000557059,226.037,""
161983,20,0.00222036,904.926,0.00055509,226.232,""
162370,20,0.00221147,905.785,0.000552866,226.446,""
162698,20,0.00220514,906.509,0.000551285,226.627,""
162986,20,0.00219935,907.143,0.000549837,226.786,""
163269,20,0.00219387,907.764,0.000548468,226.941,""
163549,20,0.00218809,908.378,0.000547022,227.094,""
163851,20,0.0021807,909.038,0.000545176,227.259,""
164273,20,0.00217213,909.956,0.000543034,227.489,""
164710,20,0.0021626,910.902,0.000540651,227.726,""
165136,20,0.00215358,911.824,0.000538396,227.956,""
165538,20,0.00214521,912.687,0.000536302,228.172,""
165985,20,0.00213632,913.642,0.000534079,228.411,""
166327,20,0.00212772,914.374,0.000531929,228.593,""
166616,20,0.00212266,914.987,0.000530665,228.747,""
166938,20,0.0021163,915.669,0.000529074,228.917,""
167160,20,0.00211147,916.139,0.000527867,229.035,""
167418,20,0.00210697,916.683,0.000526742,229.171,""
167709,20,0.00210063,917.296,0.000525157,229.324,""
168003,20,0.00209639,917.911,0.000524097,229.478,""
168351,20,0.00208922,918.639,0.000522305,229.66,""
168728,20,0.00208213,919.427,0.000520532,229.857,""
169094,20,0.0020749,920.186,0.000518725,230.047,""
169483,20,0.0020665,920.993,0.000516626,230.248,""
170026,20,0.00205743,922.112,0.000514356,230.528,""
170399,20,0.0020489,922.878,0.000512224,230.719,""
170812,20,0.00204102,923.722,0.000510256,230.93,""
171173,20,0.00203479,924.458,0.000508698,231.114,""
171651,20,0.00202593,925.429,0.000506482,231.357,""
172171,20,0.00201544,926.48,0.00050386,231.62,""
172643,20,0.00200684,927.428,0.000501711,231.857,""
173106,20,0.00199862,928.355,0.000499654,232.089,""
173301,20,0.00199551,928.746,0.000498877,232.186,""
173813,20,0.00198555,929.765,0.000496388,232.441,""
174050,20,0.00198066,930.234,0.000495164,232.558,""
174894,20,0.00196604,931.9,0.000491509,232.975,""
175324,20,0.00195952,932.744,0.00048988,233.186,""
175717,20,0.0019542,933.515,0.000488549,233.379,""
176237,20,0.00194196,934.526,0.000485491,233.632,""
176693,20,0.00193517,935.411,0.000483794,233.853,""
177137,20,0.0019278,936.268,0.00048195,234.067,""
177793,20,0.00191695,937.529,0.000479238,234.382,""
178096,20,0.0019128,938.11,0.000478199,234.527,""
178303,20,0.00190781,938.505,0.000476952,234.626,""
178760,20,0.00190211,939.376,0.000475529,234.844,""
179200,20,0.00189184,940.21,0.000472961,235.053,""
179822,20,0.00188098,941.382,0.000470245,235.346,""
180150,20,0.00187613,942,0.000469034,235.5,""
180506,20,0.00187062,942.665,0.000467654,235.666,""
180754,20,0.00186687,943.13,0.000466718,235.783,""
180987,20,0.0018636,943.564,0.000465901,235.891,""
181318,20,0.00185869,944.18,0.000464672,236.045,""
181816,20,0.00184999,945.102,0.000462498,236.276,""
182563,20,0.00183778,946.482,0.000459444,236.62,""
183016,20,0.00183175,947.313,0.000457936,236.828,""
183311,20,0.00182739,947.851,0.000456848,236.963,""
183617,20,0.00182675,948.41,0.000456689,237.103,""
183990,20,0.00182034,949.09,0.000455086,237.272,""
184283,20,0.00181353,949.624,0.000453382,237.406,""
184585,20,0.00180962,950.17,0.000452404,237.543,""
184982,20,0.00180455,950.888,0.000451137,237.722,""
185352,20,0.00179884,951.554,0.00044971,237.888,""
185808,20,0.00179375,952.374,0.000448437,238.093,""
186384,20,0.00178845,953.405,0.000447113,238.351,""
186864,20,0.00177865,954.26,0.000444663,238.565,""
187498,20,0.0017694,955.385,0.000442351,238.846,""
187814,20,0.00176503,955.944,0.000441257,238.986,""
188040,20,0.00176248,956.342,0.000440619,239.085,""
188489,20,0.00175555,957.131,0.000438888,239.283,""
189171,20,0.00174658,958.326,0.000436645,239.581,""
189632,20,0.00173997,959.13,0.000434994,239.783,""
189873,20,0.00173729,959.548,0.000434322,239.887,""
190412,20,0.00173067,960.484,0.000432667,240.121,""
191030,20,0.00172277,961.551,0.000430693,240.388,""
191618,20,0.00171395,962.561,0.000428488,240.64,""
192774,20,0.00169996,964.534,0.00042499,241.134,""
193217,20,0.00169419,965.286,0.000423548,241.322,""
193748,20,0.00168838,966.185,0.000422096,241.546,""
194373,20,0.00168018,967.237,0.000420045,241.809,""
194832,20,0.00167517,968.007,0.000418792,242.002,""
195391,20,0.00166863,968.943,0.000417158,242.236,""
195986,20,0.00166286,969.933,0.000415714,242.483,""
196260,20,0.00166012,970.389,0.000415031,242.597,""
196627,20,0.0016552,970.998,0.000413801,242.749,""
197008,20,0.00165042,971.627,0.000412606,242.907,""
197577,20,0.00164491,972.564,0.000411227,243.141,""
198138,20,0.00163715,973.486,0.000409287,243.371,""
198511,20,0.0016346,974.095,0.00040865,243.524,""
199194,20,0.00162631,975.209,0.000406579,243.802,""
199472,20,0.00162347,975.661,0.000405867,243.915,""
199958,20,0.0016179,976.449,0.000404474,244.112,""
200505,20,0.0016123,977.332,0.000403074,244.333,""
201564,20,0.00160093,979.033,0.000400232,244.758,""
201862,20,0.00159611,979.509,0.000399027,244.877,""
202206,20,0.00159287,980.058,0.000398218,245.014,""
202619,20,0.00158744,980.715,0.000396859,245.179,""
203041,20,0.00158428,981.385,0.00039607,245.346,""
203590,20,0.00157913,982.252,0.000394783,245.563,""
204181,20,0.00157296,983.183,0.000393239,245.796,""
204577,20,0.00157003,983.806,0.000392507,245.952,""
204784,20,0.00156692,984.131,0.00039173,246.033,""
205227,20,0.00156145,984.823,0.000390363,246.206,""
205602,20,0.00155942,985.409,0.000389854,246.352,""
205969,20,0.00155454,985.98,0.000388636,246.495,""
206344,20,0.00155001,986.563,0.000387502,246.641,""
206806,20,0.00154476,987.278,0.00038619,246.82,""
207162,20,0.00154227,987.827,0.000385567,246.957,""
207471,20,0.00154038,988.305,0.000385094,247.076,""
207894,20,0.00153831,988.955,0.000384577,247.239,""
208408,20,0.00153322,989.745,0.000383304,247.436,""
208722,20,0.00153006,990.225,0.000382516,247.556,""
209101,20,0.00152664,990.805,0.000381659,247.701,""
209710,20,0.00152086,991.733,0.000380214,247.933,""
210273,20,0.00151684,992.587,0.00037921,248.147,""
210715,20,0.00151275,993.258,0.000378188,248.314,""
211241,20,0.0015087,994.052,0.000377175,248.513,""
211698,20,0.00150348,994.74,0.000375871,248.685,""
212244,20,0.00149852,995.559,0.00037463,248.89,""
212770,20,0.00149374,996.347,0.000373435,249.087,""
213228,20,0.00149123,997.03,0.000372808,249.258,""
213555,20,0.00148866,997.518,0.000372165,249.379,""
213852,20,0.00148578,997.959,0.000371445,249.49,""
214206,20,0.00148274,998.485,0.000370686,249.621,""
214669,20,0.0014791,999.171,0.000369774,249.793,""
215257,20,0.00147425,1000.04,0.000368562,250.01,""
215847,20,0.00146944,1000.91,0.000367361,250.227,""
216194,20,0.00146887,1001.42,0.000367217,250.355,""
216507,20,0.00146346,1001.88,0.000365865,250.469,""
217061,20,0.0014597,1002.69,0.000364926,250.671,""
217367,20,0.00145634,1003.13,0.000364086,250.783,""
217673,20,0.00145437,1003.58,0.000363594,250.895,""
217985,20,0.00144976,1004.03,0.00036244,251.008,""
218534,20,0.00144639,1004.83,0.000361597,251.206,""
219047,20,0.0014421,1005.57,0.000360524,251.392,""
219475,20,0.00143977,1006.18,0.000359941,251.546,""
219904,20,0.00143597,1006.8,0.000358994,251.7,""
220281,20,0.00143267,1007.34,0.000358169,251.835,""
220660,20,0.00142825,1007.88,0.000357062,251.971,""
221053,20,0.00142539,1008.44,0.000356347,252.111,""
221632,20,0.00142078,1009.27,0.000355196,252.317,""
221999,20,0.00141853,1009.79,0.000354632,252.447,""
222488,20,0.00141432,1010.48,0.000353579,252.621,""
222788,20,0.00141378,1010.91,0.000353444,252.727,""
223281,20,0.00140889,1011.6,0.000352223,252.901,""
223638,20,0.00140559,1012.11,0.000351399,253.026,""
224065,20,0.00140291,1012.7,0.000350729,253.176,""
224849,20,0.00139767,1013.8,0.000349417,253.451,""
225501,20,0.00139334,1014.71,0.000348334,253.678,""
225808,20,0.0013924,1015.14,0.000348101,253.785,""
226173,20,0.00139124,1015.65,0.000347809,253.912,""
227112,20,0.00138327,1016.95,0.000345818,254.238,""
227565,20,0.00137972,1017.58,0.00034493,254.394,""
227957,20,0.00138109,1018.12,0.000345272,254.529,""
228538,20,0.00137346,1018.92,0.000343365,254.729,""
229254,20,0.00137043,1019.9,0.000342606,254.975,""
229531,20,0.00136644,1020.28,0.000341611,255.069,""
229967,20,0.00136398,1020.87,0.000340996,255.219,""
230367,20,0.00136232,1021.42,0.000340581,255.355,""
230720,20,0.00135799,1021.9,0.000339497,255.475,""
230988,20,0.00135495,1022.26,0.000338737,255.566,""
231560,20,0.00135193,1023.04,0.000337982,255.759,""
231864,20,0.00135071,1023.45,0.000337678,255.862,""
232260,20,0.00134867,1023.98,0.000337168,255.995,""
232929,20,0.00134338,1024.88,0.000335845,256.22,""
233221,20,0.0013415,1025.27,0.000335374,256.318,""
233543,20,0.00133927,1025.7,0.000334818,256.426,""
233779,20,0.00133729,1026.02,0.000334322,256.505,""
234354,20,0.00133225,1026.79,0.000333063,256.697,""
234746,20,0.0013309,1027.31,0.000332724,256.828,""
235069,20,0.00133169,1027.74,0.000332922,256.935,""
235448,20,0.00132987,1028.24,0.000332467,257.061,""
236030,20,0.00132471,1029.02,0.000331177,257.254,""
236304,20,0.00132409,1029.38,0.000331023,257.345,""
236924,20,0.00131984,1030.2,0.000329959,257.55,""
237582,20,0.00131625,1031.07,0.000329064,257.767,""
237909,20,0.0013145,1031.5,0.000328626,257.874,""
238447,20,0.00131288,1032.2,0.00032822,258.051,""
238688,20,0.00131369,1032.52,0.000328423,258.13,""
239137,20,0.00130801,1033.11,0.000327004,258.277,""
239494,20,0.00130682,1033.58,0.000326706,258.394,""
240088,20,0.00130324,1034.35,0.000325809,258.588,""
240429,20,0.00130237,1034.8,0.000325593,258.699,""
240948,20,0.00129936,1035.47,0.000324839,258.868,""
241264,20,0.00129636,1035.88,0.000324089,258.97,""
241616,20,0.00129456,1036.34,0.000323639,259.084,""
242144,20,0.0012905,1037.02,0.000322624,259.255,""
242795,20,0.00128632,1037.86,0.000321579,259.464,""
243158,20,0.00128424,1038.32,0.00032106,259.581,""
243558,20,0.00128569,1038.84,0.000321424,259.709,""
243978,20,0.00127655,1039.38,0.000319138,259.844,""
244378,20,0.00127503,1039.89,0.000318757,259.972,""
244754,20,0.00127348,1040.37,0.000318371,260.091,""
245102,20,0.00127327,1040.81,0.000318317,260.202,""
245620,20,0.00126745,1041.47,0.000316864,260.367,""
246153,20,0.00126388,1042.14,0.000315969,260.535,""
246543,20,0.00126464,1042.63,0.000316161,260.658,""
246821,20,0.00125944,1042.98,0.000314859,260.746,""
247161,20,0.00125736,1043.41,0.00031434,260.853,""
247596,20,0.00125599,1043.96,0.000313998,260.99,""
248137,20,0.00125286,1044.64,0.000313215,261.159,""
248528,20,0.00124992,1045.13,0.00031248,261.282,""
249086,20,0.00124603,1045.82,0.000311509,261.456,""
249660,20,0.0012408,1046.54,0.000310201,261.634,""
250031,20,0.00123939,1047,0.000309848,261.749,""
250479,20,0.0012355,1047.55,0.000308876,261.888,""
250950,20,0.00123237,1048.13,0.000308093,262.033,""
251305,20,0.00123027,1048.57,0.000307567,262.142,""
251619,20,0.00122866,1048.96,0.000307164,262.239,""
251856,20,0.00122809,1049.25,0.000307023,262.312,""
252527,20,0.00122355,1050.07,0.000305888,262.517,""
252886,20,0.00122099,1050.51,0.000305247,262.627,""
253381,20,0.00122127,1051.11,0.000305317,262.778,""
253733,20,0.00121574,1051.54,0.000303934,262.885,""
254020,20,0.00121331,1051.89,0.000303328,262.972,""
254437,20,0.00121202,1052.4,0.000303005,263.099,""
254676,20,0.00120919,1052.68,0.000302298,263.171,""
255092,20,0.00120773,1053.19,0.000301933,263.297,""
255661,20,0.00120526,1053.87,0.000301316,263.468,""
256002,20,0.00120316,1054.28,0.000300791,263.571,""
256652,20,0.00119933,1055.07,0.000299833,263.766,""
257229,20,0.00119682,1055.76,0.000299206,263.939,""
257567,20,0.00119526,1056.16,0.000298814,264.04,""
257991,20,0.00119191,1056.67,0.000297978,264.167,""
258342,20,0.00119015,1057.09,0.000297539,264.272,""
258740,20,0.00118836,1057.56,0.00029709,264.39,""
259268,20,0.00118635,1058.19,0.000296586,264.547,""
259701,20,0.00118432,1058.7,0.000296079,264.675,""
260051,20,0.00118244,1059.11,0.000295611,264.779,""
260518,20,0.00118222,1059.67,0.000295555,264.917,""
260905,20,0.00117511,1060.12,0.000293779,265.031,""
261484,20,0.00117378,1060.8,0.000293444,265.201,""
262051,20,0.00117177,1061.47,0.000292942,265.367,""
262589,20,0.00116734,1062.1,0.000291836,265.525,""
263084,20,0.00116666,1062.68,0.000291665,265.669,""
263736,20,0.00116354,1063.43,0.000290884,265.859,""
264325,20,0.00116105,1064.12,0.000290264,266.03,""
264702,20,0.00116285,1064.56,0.000290713,266.14,""
265060,20,0.00115617,1064.97,0.000289043,266.243,""
265429,20,0.00115585,1065.4,0.000288962,266.35,""
266235,20,0.00115205,1066.33,0.000288013,266.583,""
266586,20,0.00114988,1066.73,0.000287471,266.684,""
267289,20,0.00114635,1067.54,0.000286586,266.886,""
267619,20,0.00114523,1067.92,0.000286309,266.98,""
267919,20,0.00114251,1068.26,0.000285627,267.066,""
268384,20,0.00114112,1068.79,0.000285279,267.199,""
268688,20,0.0011389,1069.14,0.000284725,267.285,""
269036,20,0.00113763,1069.54,0.000284408,267.385,""
269627,20,0.00113442,1070.21,0.000283605,267.552,""
270422,20,0.00113231,1071.11,0.000283078,267.777,""
270680,20,0.00113117,1071.4,0.000282792,267.85,""
270954,20,0.00112922,1071.71,0.000282304,267.928,""
271438,20,0.00112786,1072.26,0.000281966,268.065,""
271795,20,0.00112479,1072.66,0.000281199,268.165,""
272187,20,0.0011231,1073.1,0.000280774,268.275,""
272690,20,0.00112028,1073.67,0.000280071,268.416,""
273120,20,0.00111837,1074.15,0.000279592,268.537,""
273550,20,0.00111661,1074.63,0.000279152,268.657,""
273947,20,0.00111424,1075.07,0.000278559,268.768,""
274771,20,0.00110932,1075.99,0.000277329,268.997,""
275063,20,0.0011082,1076.31,0.000277049,269.078,""
275559,20,0.00110559,1076.86,0.000276397,269.215,""
276125,20,0.00110309,1077.49,0.000275773,269.371,""
276638,20,0.00110009,1078.05,0.000275023,269.513,""
277030,20,0.00109907,1078.48,0.000274766,269.62,""
277504,20,0.001097,1079,0.000274251,269.751,""
277809,20,0.00109528,1079.34,0.000273819,269.834,""
278550,20,0.00109268,1080.15,0.000273169,270.037,""
278823,20,0.00109067,1080.45,0.000272668,270.111,""
279356,20,0.00108913,1081.03,0.000272283,270.257,""
280174,20,0.00108488,1081.92,0.000271221,270.479,""
280552,20,0.00108367,1082.33,0.000270917,270.581,""
281046,20,0.00108206,1082.86,0.000270514,270.715,""
281432,20,0.00108122,1083.28,0.000270304,270.819,""
281916,20,0.0010781,1083.8,0.000269526,270.95,""
282181,20,0.00107762,1084.09,0.000269406,271.021,""
282674,20,0.00107593,1084.62,0.000268983,271.154,""
283108,20,0.00107371,1085.08,0.000268429,271.271,""
283464,20,0.00107259,1085.46,0.000268148,271.366,""
283844,20,0.00107055,1085.87,0.000267639,271.468,""
284609,20,0.00106642,1086.69,0.000266606,271.672,""
285057,20,0.00106539,1087.17,0.000266348,271.792,""
285414,20,0.00106324,1087.55,0.000265809,271.887,""
285952,20,0.0010617,1088.12,0.000265426,272.03,""
286536,20,0.00105905,1088.74,0.000264761,272.184,""
287240,20,0.00105566,1089.48,0.000263915,272.371,""
287676,20,0.00105454,1089.94,0.000263635,272.486,""
288236,20,0.00105239,1090.53,0.000263097,272.633,""
288725,20,0.00105057,1091.05,0.000262642,272.762,""
288985,20,0.001051,1091.32,0.000262749,272.83,""
289746,20,0.00104753,1092.12,0.000261881,273.029,""
290184,20,0.00104521,1092.58,0.000261302,273.144,""
290828,20,0.00104326,1093.25,0.000260815,273.312,""
291437,20,0.0010409,1093.88,0.000260224,273.471,""
291726,20,0.00103931,1094.18,0.000259828,273.546,""
291919,20,0.00103911,1094.38,0.000259778,273.596,""
292471,20,0.00103682,1094.96,0.000259205,273.739,""
292996,20,0.00103474,1095.5,0.000258686,273.875,""
293484,20,0.00103336,1096.01,0.000258341,274.001,""
293867,20,0.00103231,1096.4,0.000258077,274.1,""
294504,20,0.00102923,1097.06,0.000257307,274.264,""
294978,20,0.0010282,1097.54,0.00025705,274.386,""
295499,20,0.00102756,1098.08,0.000256889,274.52,""
295993,20,0.00102348,1098.59,0.000255871,274.646,""
296334,20,0.00102286,1098.93,0.000255716,274.734,""
296710,20,0.00102112,1099.32,0.000255279,274.83,""
297187,20,0.00101848,1099.81,0.00025462,274.951,""
297607,20,0.00101773,1100.23,0.000254432,275.058,""
298316,20,0.00101873,1100.95,0.000254682,275.239,""
298668,20,0.00101247,1101.31,0.000253118,275.328,""
298996,20,0.00101128,1101.64,0.000252821,275.411,""
299593,20,0.00101054,1102.25,0.000252635,275.562,""
300132,20,0.00100753,1102.79,0.000251883,275.697,""
300611,20,0.00100695,1103.27,0.000251737,275.818,""
300961,20,0.00100456,1103.63,0.00025114,275.906,""
301344,20,0.00100327,1104.01,0.000250816,276.002,""
301623,20,0.00100569,1104.29,0.000251424,276.072,""
302334,20,0.000999364,1105,0.000249841,276.25,""
302777,20,0.000997879,1105.44,0.00024947,276.361,""
303394,20,0.000997658,1106.06,0.000249415,276.515,""
303691,20,0.000996925,1106.36,0.000249231,276.589,""
304160,20,0.000992216,1106.82,0.000248054,276.705,""
304631,20,0.000992047,1107.29,0.000248012,276.822,""
305040,20,0.000989842,1107.69,0.00024746,276.924,""
305427,20,0.00098941,1108.08,0.000247352,277.019,""
305880,20,0.000989238,1108.52,0.000247309,277.131,""
306439,20,0.000986066,1109.08,0.000246517,277.269,""
307369,20,0.000983216,1109.99,0.000245804,277.498,""
307745,20,0.000982336,1110.36,0.000245584,277.59,""
307972,20,0.000980529,1110.58,0.000245132,277.646,""
308316,20,0.000979952,1110.92,0.000244988,277.73,""
308691,20,0.000978705,1111.29,0.000244676,277.822,""
309334,20,0.000975449,1111.92,0.000243862,277.979,""
309908,20,0.000973801,1112.48,0.00024345,278.119,""
310369,20,0.000972518,1112.92,0.000243129,278.231,""
310764,20,0.000972479,1113.31,0.00024312,278.327,""
311170,20,0.000970716,1113.7,0.000242679,278.426,""
311882,20,0.000968373,1114.39,0.000242093,278.599,""
312324,20,0.000968123,1114.82,0.000242031,278.705,""
312559,20,0.00096648,1115.05,0.00024162,278.762,""
312901,20,0.000965517,1115.38,0.000241379,278.845,""
313265,20,0.000963607,1115.73,0.000240902,278.933,""
313706,20,0.000962328,1116.16,0.000240582,279.039,""
314027,20,0.000965711,1116.47,0.000241428,279.117,""
314463,20,0.000957738,1116.88,0.000239434,279.221,""
314887,20,0.000956543,1117.29,0.000239136,279.322,""
315625,20,0.00095486,1118,0.000238715,279.499,""
316329,20,0.00095408,1118.67,0.00023852,279.667,""
316930,20,0.000950331,1119.24,0.000237583,279.81,""
317324,20,0.000948991,1119.61,0.000237248,279.904,""
317605,20,0.000949088,1119.88,0.000237272,279.97,""
318025,20,0.000947327,1120.28,0.000236832,280.07,""
318651,20,0.000945974,1120.87,0.000236493,280.218,""
319051,20,0.000945848,1121.25,0.000236462,280.313,""
319464,20,0.000943713,1121.64,0.000235928,280.41,""
319692,20,0.000942839,1121.86,0.00023571,280.464,""
320049,20,0.000942774,1122.19,0.000235694,280.548,""
320751,20,0.000940578,1122.85,0.000235145,280.713,""
321028,20,0.000939312,1123.11,0.000234828,280.778,""
321675,20,0.000937892,1123.72,0.000234473,280.93,""
322016,20,0.000935763,1124.04,0.000233941,281.01,""
322414,20,0.000935855,1124.41,0.000233964,281.103,""
322421,20,0.000935816,1124.42,0.000233954,281.105,""
322428,20,0.000935778,1124.43,0.000233944,281.106,""
322434,20,0.000935748,1124.43,0.000233937,281.108,""
322441,20,0.000935756,1124.44,0.000233939,281.109,""
322448,20,0.000935764,1124.44,0.000233941,281.111,""
322455,20,0.000935773,1124.45,0.000233943,281.113,""
322462,20,0.00093578,1124.46,0.000233945,281.114,""
322462,20,NaN,NaN,NaN,NaN,""
322463,20,NaN,NaN,NaN,NaN,""
322464,20,NaN,NaN,NaN,NaN,""
322465,20,NaN,NaN,NaN,NaN,""
322466,20,NaN,NaN,NaN,NaN,""
322467,20,NaN,NaN,NaN,NaN,""
322468,20,NaN,NaN,NaN,NaN,""
322469,20,NaN,NaN,NaN,NaN,""
322469,20,NaN,NaN,NaN,NaN,"Ampoule removed"
322470,20,NaN,NaN,NaN,NaN,""