File: TAInstCalorimetry/DATA/peak_detection_example1.csv
Summary
Name,"JAA_CAL149.rslt"
Start time,2022 Okt 18 - 8:03
End time,2022 Okt 21 - 10:26
Operator,"JAA"
Results file path,"C:\Users\ga42fix\Desktop\AK Gädt\AK Gädt Kalo2\JAA\JAA_CAL149.rslt"
General Experiment Info
Bath temperature,20°C
,Sample - 213:4
Total mass,6g
Name,"JAA_CAL149"
,Component - OPC
Mass,4g
Name,"OPC"
ID,"Bernburg CEM I 42.5R 29.09.21"

"Time","Temperature","Heat flow","Heat","Normalized heat flow","Normalized heat","Time markers"
-3632.85,20,NaN,NaN,NaN,NaN,""
-3631.38,20,-8.88905e-07,NaN,-2.22226e-07,NaN,""
-3613.87,20,-6.1622e-07,NaN,-1.54055e-07,NaN,""
-3589.32,20,-5.13757e-07,NaN,-1.28439e-07,NaN,""
-3562.57,20,3.74134e-07,NaN,9.35335e-08,NaN,""
-3536.38,20,9.16486e-08,NaN,2.29121e-08,NaN,""
-3508.52,20,8.5962e-07,NaN,2.14905e-07,NaN,""
-3474.1,20,8.54016e-07,NaN,2.13504e-07,NaN,""
-3447.94,20,1.54387e-06,NaN,3.85966e-07,NaN,""
-3421.31,20,1.19285e-06,NaN,2.98212e-07,NaN,""
-3403.78,20,9.60419e-07,NaN,2.40105e-07,NaN,""
-3378.99,20,1.6977e-06,NaN,4.24424e-07,NaN,""
-3343.22,20,1.3892e-06,NaN,3.47301e-07,NaN,""
-3315.42,20,2.02961e-06,NaN,5.07402e-07,NaN,""
-3277.88,20,9.91489e-07,NaN,2.47872e-07,NaN,""
-3256.88,20,1.11287e-06,NaN,2.78216e-07,NaN,""
-3233.17,20,4.81593e-07,NaN,1.20398e-07,NaN,""
-3190.53,20,1.97856e-07,NaN,4.94639e-08,NaN,""
-3173.26,20,-6.22951e-07,NaN,-1.55738e-07,NaN,""
-3140.97,20,-3.33115e-07,NaN,-8.32787e-08,NaN,""
-3107.89,20,-1.41937e-06,NaN,-3.54842e-07,NaN,""
-3055.7,20,-2.23556e-06,NaN,-5.58889e-07,NaN,""
-3018.73,20,-2.12517e-06,NaN,-5.31292e-07,NaN,""
-2990.22,20,-2.47409e-06,NaN,-6.18523e-07,NaN,""
-2963.85,20,-2.18168e-06,NaN,-5.45421e-07,NaN,""
-2938.96,20,-1.80786e-06,NaN,-4.51965e-07,NaN,""
-2914.29,20,-2.47193e-06,NaN,-6.17982e-07,NaN,""
-2851.02,20,-1.17962e-06,NaN,-2.94904e-07,NaN,""
-2812.63,20,-2.53198e-07,NaN,-6.32995e-08,NaN,""
-2778.66,20,-3.79437e-07,NaN,-9.48592e-08,NaN,""
-2746.88,20,2.51976e-07,NaN,6.29939e-08,NaN,""
-2724.19,20,2.29102e-08,NaN,5.72754e-09,NaN,""
-2685.28,20,6.37944e-07,NaN,1.59486e-07,NaN,""
-2666.42,20,8.59643e-08,NaN,2.14911e-08,NaN,""
-2642.11,20,2.25369e-07,NaN,5.63423e-08,NaN,""
-2632.29,20,-3.45828e-07,NaN,-8.64569e-08,NaN,""
-2606.3,20,-1.06346e-07,NaN,-2.65864e-08,NaN,""
-2552.39,20,-5.5733e-07,NaN,-1.39333e-07,NaN,""
-2535.84,20,-1.79709e-07,NaN,-4.49271e-08,NaN,""
-2508.28,20,-6.40877e-07,NaN,-1.60219e-07,NaN,""
-2453.64,20,-7.11386e-07,NaN,-1.77846e-07,NaN,""
-2416.82,20,-1.23561e-06,NaN,-3.08901e-07,NaN,""
-2390.24,20,-8.51856e-07,NaN,-2.12964e-07,NaN,""
-2355.83,20,-1.37496e-06,NaN,-3.43741e-07,NaN,""
-2320.42,20,-8.81553e-07,NaN,-2.20388e-07,NaN,""
-2277.54,20,8.44326e-09,NaN,2.11081e-09,NaN,""
-2244.85,20,-1.19685e-07,NaN,-2.99212e-08,NaN,""
-2223.21,20,5.19713e-07,NaN,1.29928e-07,NaN,""
-2201.5,20,4.11351e-07,NaN,1.02838e-07,NaN,""
-2171.18,20,9.36488e-07,NaN,2.34122e-07,NaN,""
-2135.51,20,8.3218e-07,NaN,2.08045e-07,NaN,""
-2091.13,20,1.64548e-06,NaN,4.1137e-07,NaN,""
-2057.94,20,2.07442e-06,NaN,5.18604e-07,NaN,""
-2026.31,20,1.35892e-06,NaN,3.3973e-07,NaN,""
-1982.02,20,1.18063e-06,NaN,2.95158e-07,NaN,""
-1972.63,20,1.43534e-06,NaN,3.58836e-07,NaN,""
-1943.95,20,1.1607e-06,NaN,2.90176e-07,NaN,""
-1922.35,20,1.35414e-06,NaN,3.38534e-07,NaN,""
-1898.6,20,8.29562e-07,NaN,2.0739e-07,NaN,""
-1864.95,20,1.37563e-06,NaN,3.43906e-07,NaN,""
-1833.38,20,8.63791e-07,NaN,2.15948e-07,NaN,""
2220.48,20,NaN,NaN,NaN,NaN,"Reaction start. Measuring position. Signal correct"
2220.62,20,8.86434e-05,1.26085e-05,2.21609e-05,3.15212e-06,""
2493.86,20,0.000217021,0.0419286,5.42551e-05,0.0104821,""
2518.62,20,0.0122239,0.0889804,0.00305597,0.0222451,""
2529.62,20,0.049125,0.413047,0.0122812,0.103262,""
2541.62,20,0.0977243,1.29276,0.0244311,0.32319,""
2553.62,20,0.143052,2.74312,0.035763,0.685781,""
2565.62,20,0.180299,4.69195,0.0450748,1.17299,""
2575.87,20,0.204885,6.67175,0.0512212,1.66794,""
2587.5,20,0.22562,9.1819,0.0564049,2.29548,""
2601.62,20,0.242126,12.4955,0.0605314,3.12388,""
2612.75,20,0.249605,15.2347,0.0624014,3.80867,""
2623.87,20,0.253576,18.037,0.0633939,4.50925,""
2638.62,20,0.254592,21.7896,0.063648,5.44741,""
2651.62,20,0.252569,25.0883,0.0631423,6.27207,""
2665.5,20,0.24833,28.5651,0.0620824,7.14127,""
2684.06,20,0.240482,33.1051,0.0601204,8.27628,""
2703.75,20,0.230569,37.744,0.0576423,9.43599,""
2724.12,20,0.219442,42.3296,0.0548604,10.5824,""
2763.81,20,0.197226,50.5978,0.0493064,12.6495,""
2795.12,20,0.18024,56.5054,0.0450601,14.1264,""
2816.18,20,0.169362,60.1864,0.0423406,15.0466,""
2836.62,20,0.159288,63.5439,0.0398219,15.886,""
2856.5,20,0.14999,66.6166,0.0374976,16.6541,""
2878.12,20,0.140438,69.7558,0.0351094,17.439,""
2899.5,20,0.131548,72.6616,0.0328869,18.1654,""
2920.62,20,0.123301,75.3524,0.0308252,18.8381,""
2942.06,20,0.115473,77.9108,0.0288681,19.4777,""
2961.62,20,0.108774,80.1035,0.0271935,20.0259,""
2981.5,20,0.102385,82.2013,0.0255964,20.5503,""
3003.12,20,0.0958536,84.3439,0.0239634,21.086,""
3025.2,20,0.0896734,86.3912,0.0224184,21.5978,""
3055.12,20,0.0819519,88.9569,0.020488,22.2392,""
3082.75,20,0.0754696,91.1301,0.0188674,22.7825,""
3114.12,20,0.068802,93.3915,0.0172005,23.3479,""
3148.29,20,0.0622846,95.6292,0.0155712,23.9073,""
3178.62,20,0.0570777,97.4379,0.0142694,24.3595,""
3219.62,20,0.0508377,99.6473,0.0127094,24.9118,""
3261.12,20,0.0453229,101.64,0.0113307,25.41,""
3297.62,20,0.0410572,103.215,0.0102643,25.8037,""
3338.12,20,0.0368941,104.792,0.00922354,26.1979,""
3380.12,20,0.03312,106.26,0.00827999,26.5651,""
3420.95,20,0.0299208,107.546,0.00748021,26.8865,""
3475.43,20,0.026249,109.073,0.00656225,27.2683,""
3521.12,20,0.0236333,110.211,0.00590834,27.5528,""
3571.33,20,0.0211608,111.334,0.00529019,27.8335,""
3619.54,20,0.0191289,112.304,0.00478223,28.076,""
3676.78,20,0.017075,113.338,0.00426875,28.3346,""
3744.54,20,0.0150642,114.425,0.00376605,28.6063,""
3815.9,20,0.0133441,115.437,0.00333602,28.8592,""
3885.66,20,0.0119727,116.318,0.00299318,29.0796,""
3962.97,20,0.0107349,117.194,0.00268372,29.2986,""
4035.97,20,0.00978163,117.942,0.00244541,29.4855,""
4120.93,20,0.00887602,118.733,0.002219,29.6833,""
4209.3,20,0.00811551,119.483,0.00202888,29.8707,""
4327.58,20,0.00730916,120.393,0.00182729,30.0982,""
4435.73,20,0.00672753,121.151,0.00168188,30.2877,""
4561.29,20,0.00618644,121.96,0.00154661,30.4901,""
4703.82,20,0.00569294,122.806,0.00142324,30.7014,""
4920.32,20,0.0051088,123.972,0.0012772,30.993,""
5090.56,20,0.00474353,124.81,0.00118588,31.2025,""
5301.48,20,0.00436582,125.769,0.00109145,31.4423,""
5525.01,20,0.00402809,126.706,0.00100702,31.6766,""
5734.01,20,0.00375882,127.519,0.000939706,31.8799,""
5963.33,20,0.00350521,128.352,0.000876302,32.0879,""
6175.6,20,0.00329954,129.073,0.000824886,32.2683,""
6519.12,20,0.00301518,130.157,0.000753796,32.5392,""
6958.87,20,0.002717,131.415,0.000679249,32.8536,""
7265.79,20,0.00254228,132.221,0.000635571,33.0553,""
7568.67,20,0.00239056,132.968,0.000597639,33.2419,""
7947.28,20,0.0022267,133.841,0.000556675,33.4602,""
8197.83,20,0.0021307,134.387,0.000532676,33.5966,""
8496.01,20,0.00202708,135.006,0.000506769,33.7515,""
8820.12,20,0.00192705,135.647,0.000481762,33.9116,""
9080.66,20,0.00185274,136.139,0.000463185,34.0347,""
9242.95,20,0.00181004,136.436,0.00045251,34.109,""
9560.58,20,0.00173126,136.998,0.000432815,34.2496,""
9771.51,20,0.00168362,137.358,0.000420904,34.3396,""
10145.8,20,0.00160548,137.974,0.00040137,34.4934,""
10500.1,20,0.00153712,138.53,0.00038428,34.6325,""
10848.5,20,0.00147629,139.055,0.000369073,34.7637,""
11296.2,20,0.00140349,139.699,0.000350872,34.9248,""
11631.1,20,0.00135364,140.161,0.000338411,35.0402,""
12025.3,20,0.00129967,140.684,0.000324917,35.1709,""
12274.8,20,0.00126702,141.004,0.000316755,35.251,""
12567,20,0.00123158,141.369,0.000307894,35.3422,""
12982.8,20,0.00118437,141.871,0.000296093,35.4677,""
13248.6,20,0.00115678,142.182,0.000289194,35.5455,""
13591.1,20,0.00112346,142.572,0.000280864,35.6431,""
13834.6,20,0.00109924,142.843,0.000274811,35.7107,""
14229.1,20,0.00106391,143.27,0.000265977,35.8174,""
14432.9,20,0.0010473,143.485,0.000261825,35.8712,""
14669.8,20,0.00102829,143.73,0.000257072,35.9326,""
14890,20,0.001012,143.955,0.000253,35.9888,""
15258.3,20,0.000985753,144.323,0.000246438,36.0807,""
15478,20,0.000972171,144.538,0.000243043,36.1345,""
15925,20,0.000946535,144.966,0.000236634,36.2416,""
16367.2,20,0.00093041,145.381,0.000232602,36.3453,""
16657.5,20,0.00095342,145.654,0.000238355,36.4134,""
16982.5,20,0.00092223,145.96,0.000230558,36.49,""
17188.7,20,0.000898772,146.148,0.000224693,36.5369,""
17558.4,20,0.000869159,146.474,0.00021729,36.6185,""
17847.9,20,0.00085124,146.723,0.00021281,36.6808,""
18285.5,20,0.000826782,147.09,0.000206695,36.7726,""
18537.1,20,0.000814724,147.297,0.000203681,36.8242,""
18723.2,20,0.000805437,147.448,0.000201359,36.8619,""
18923.1,20,0.000795693,147.608,0.000198923,36.9019,""
19285.3,20,0.000779694,147.893,0.000194924,36.9732,""
19494.9,20,0.000770649,148.055,0.000192662,37.0138,""
19794.4,20,0.000757552,148.284,0.000189388,37.071,""
20041.5,20,0.000746764,148.47,0.000186691,37.1175,""
20440.6,20,0.000730978,148.765,0.000182744,37.1913,""
20618.3,20,0.000724709,148.894,0.000181177,37.2236,""
20956.6,20,0.000711499,149.137,0.000177875,37.2843,""
21199.8,20,0.000702991,149.309,0.000175748,37.3273,""
21420.8,20,0.000695323,149.464,0.000173831,37.3659,""
21567.6,20,0.000689982,149.565,0.000172495,37.3914,""
21836.6,20,0.000681309,149.75,0.000170327,37.4375,""
22152,20,0.000671372,149.963,0.000167843,37.4908,""
22365.8,20,0.000664398,150.106,0.0001661,37.5265,""
22588.7,20,0.0006579,150.253,0.000164475,37.5633,""
22742.2,20,0.000652156,150.354,0.000163039,37.5885,""
22923,20,0.000647735,150.471,0.000161934,37.6178,""
23112.8,20,0.000641873,150.594,0.000160468,37.6484,""
23279,20,0.000637225,150.7,0.000159306,37.675,""
23473,20,0.000631273,150.823,0.000157818,37.7057,""
23624.5,20,0.000628424,150.918,0.000157106,37.7296,""
24019.1,20,0.000617257,151.164,0.000154314,37.791,""
24178.6,20,0.000613993,151.262,0.000153498,37.8155,""
24405.3,20,0.000607937,151.401,0.000151984,37.8502,""
24545.8,20,0.000605084,151.486,0.000151271,37.8715,""
24826.1,20,0.0005977,151.655,0.000149425,37.9136,""
25037.1,20,0.000594188,151.78,0.000148547,37.9451,""
25372.9,20,0.000586659,151.978,0.000146665,37.9946,""
25547.1,20,0.000582533,152.08,0.000145633,38.0201,""
25760.7,20,0.000579211,152.204,0.000144803,38.0511,""
25937.9,20,0.000575624,152.307,0.000143906,38.0766,""
26084.1,20,0.000572494,152.39,0.000143124,38.0976,""
26265.6,20,0.000568248,152.494,0.000142062,38.1235,""
26487.6,20,0.000565114,152.62,0.000141279,38.1549,""
26882.7,20,0.000556315,152.841,0.000139079,38.2103,""
27128.8,20,0.000552593,152.978,0.000138148,38.2445,""
27411.6,20,0.000547983,153.134,0.000136996,38.2834,""
27566,20,0.000545027,153.218,0.000136257,38.3045,""
27805.6,20,0.000542107,153.348,0.000135527,38.337,""
28079.1,20,0.000537397,153.496,0.000134349,38.3739,""
28321.6,20,0.000533705,153.626,0.000133426,38.4064,""
28602,20,0.000530496,153.775,0.000132624,38.4437,""
28794.2,20,0.000527093,153.876,0.000131773,38.4691,""
28970,20,0.000524289,153.969,0.000131072,38.4922,""
29330.4,20,0.00051882,154.157,0.000129705,38.5392,""
29552.9,20,0.000516247,154.272,0.000129062,38.568,""
29796.6,20,0.00051252,154.397,0.00012813,38.5993,""
30003.7,20,0.000510771,154.503,0.000127693,38.6258,""
30354.9,20,0.000506021,154.682,0.000126505,38.6704,""
30599.2,20,0.000502706,154.805,0.000125676,38.7012,""
30889.9,20,0.000499359,154.95,0.00012484,38.7376,""
31344.9,20,0.000493534,155.176,0.000123384,38.7941,""
31641.4,20,0.000489681,155.322,0.00012242,38.8305,""
32055,20,0.000485077,155.524,0.000121269,38.8809,""
32545,20,0.000479527,155.76,0.000119882,38.94,""
32814.9,20,0.000476329,155.889,0.000119082,38.9723,""
33111.4,20,0.000474019,156.03,0.000118505,39.0075,""
33277.8,20,0.000472043,156.109,0.000118011,39.0272,""
33458.6,20,0.000470937,156.194,0.000117734,39.0485,""
33756.3,20,0.000467532,156.334,0.000116883,39.0834,""
34068.3,20,0.000465484,156.479,0.000116371,39.1198,""
34390.5,20,0.00046201,156.628,0.000115503,39.1571,""
34653,20,0.000458889,156.749,0.000114722,39.1874,""
34936.6,20,0.000456662,156.879,0.000114166,39.2198,""
35218.5,20,0.00045352,157.008,0.00011338,39.2519,""
35463,20,0.000451252,157.118,0.000112813,39.2795,""
35724.2,20,0.000448613,157.236,0.000112153,39.3089,""
35991,20,0.000446122,157.355,0.000111531,39.3388,""
36631.3,20,0.000442295,157.64,0.000110574,39.4099,""
36995.1,20,0.000440017,157.8,0.000110004,39.4501,""
37397.6,20,0.000439016,157.977,0.000109754,39.4943,""
37877,20,0.000438256,158.187,0.000109564,39.5468,""
38133.5,20,0.000437513,158.3,0.000109378,39.5749,""
38470.9,20,0.000437375,158.447,0.000109344,39.6118,""
38721.6,20,0.000437138,158.557,0.000109285,39.6392,""
39016.6,20,0.000437458,158.686,0.000109365,39.6715,""
39283.1,20,0.000437531,158.802,0.000109383,39.7006,""
39580,20,0.000437571,158.932,0.000109393,39.7331,""
40023.6,20,0.000437486,159.126,0.000109372,39.7816,""
40237.4,20,0.000437893,159.22,0.000109473,39.805,""
40597.9,20,0.000437575,159.378,0.000109394,39.8445,""
40846.7,20,0.000437885,159.487,0.000109471,39.8717,""
41109.5,20,0.000438523,159.602,0.000109631,39.9005,""
41488,20,0.00043854,159.768,0.000109635,39.942,""
41935.6,20,0.00043884,159.964,0.00010971,39.9911,""
42235.5,20,0.000439248,160.096,0.000109812,40.024,""
42524.6,20,0.000438917,160.223,0.000109729,40.0557,""
42819.9,20,0.000438798,160.352,0.000109699,40.0881,""
43189.8,20,0.000439391,160.515,0.000109848,40.1287,""
43475.1,20,0.000439952,160.64,0.000109988,40.1601,""
43778.3,20,0.000440849,160.774,0.000110212,40.1935,""
44057.3,20,0.000441035,160.897,0.000110259,40.2242,""
44271.6,20,0.000441442,160.991,0.00011036,40.2478,""
44507.1,20,0.000442099,161.095,0.000110525,40.2739,""
44778.1,20,0.000442864,161.215,0.000110716,40.3038,""
44990,20,0.000442904,161.309,0.000110726,40.3273,""
45294.7,20,0.000442662,161.444,0.000110666,40.361,""
45502.5,20,0.000443258,161.536,0.000110815,40.384,""
45978.1,20,0.000443464,161.747,0.000110866,40.4367,""
46343.9,20,0.000443801,161.909,0.00011095,40.4773,""
46707,20,0.000444782,162.071,0.000111196,40.5177,""
46963.9,20,0.000444676,162.185,0.000111169,40.5462,""
47248.2,20,0.00044516,162.311,0.00011129,40.5778,""
47539.9,20,0.000445873,162.441,0.000111468,40.6103,""
47895.8,20,0.000446397,162.6,0.000111599,40.65,""
48108.1,20,0.000446571,162.695,0.000111643,40.6737,""
48605.9,20,0.000447169,162.917,0.000111792,40.7293,""
48979.7,20,0.000447501,163.084,0.000111875,40.7711,""
49197.6,20,0.000447748,163.182,0.000111937,40.7955,""
49401.6,20,0.000447898,163.273,0.000111975,40.8183,""
49598.7,20,0.000448364,163.361,0.000112091,40.8403,""
49835,20,0.000447945,163.467,0.000111986,40.8668,""
50156,20,0.000448964,163.611,0.000112241,40.9028,""
50404,20,0.000448495,163.723,0.000112124,40.9306,""
50860.4,20,0.000449795,163.927,0.000112449,40.9819,""
51082.5,20,0.000449177,164.027,0.000112294,41.0068,""
51481.9,20,0.000449124,164.207,0.000112281,41.0517,""
51769.9,20,0.000449456,164.336,0.000112364,41.0841,""
52019.6,20,0.000450619,164.449,0.000112655,41.1122,""
52427.6,20,0.000450221,164.633,0.000112555,41.1581,""
52705.1,20,0.0004505,164.758,0.000112625,41.1894,""
52940.8,20,0.000450753,164.864,0.000112688,41.216,""
53261,20,0.000450609,165.008,0.000112652,41.252,""
53626.5,20,0.000450795,165.173,0.000112699,41.2932,""
53845.5,20,0.00045048,165.272,0.00011262,41.3179,""
54189.6,20,0.000451939,165.427,0.000112985,41.3567,""
54485.6,20,0.000452188,165.561,0.000113047,41.3901,""
54787.4,20,0.000452386,165.697,0.000113096,41.4242,""
55022.1,20,0.00045313,165.803,0.000113282,41.4508,""
55215,20,0.000452842,165.891,0.00011321,41.4727,""
55468.2,20,0.000453737,166.005,0.000113434,41.5013,""
55914.6,20,0.000453597,166.208,0.000113399,41.5519,""
56232,20,0.000453184,166.352,0.000113296,41.5879,""
56599.4,20,0.000453899,166.518,0.000113475,41.6296,""
56931.9,20,0.000453288,166.669,0.000113322,41.6673,""
57255.7,20,0.000453201,166.816,0.0001133,41.704,""
57679.7,20,0.000454154,167.008,0.000113538,41.7521,""
57955.3,20,0.000454139,167.133,0.000113535,41.7834,""
58231.5,20,0.000454563,167.259,0.000113641,41.8147,""
58495.6,20,0.000454085,167.379,0.000113521,41.8447,""
58783.4,20,0.000454993,167.51,0.000113748,41.8774,""
59024.5,20,0.000455167,167.619,0.000113792,41.9048,""
59577.8,20,0.000456182,167.871,0.000114046,41.9679,""
59899.1,20,0.000455766,168.018,0.000113942,42.0045,""
60187.2,20,0.000455975,168.149,0.000113994,42.0373,""
60422.5,20,0.000457375,168.257,0.000114344,42.0642,""
60778.9,20,0.000456833,168.42,0.000114208,42.1049,""
61221.4,20,0.000456933,168.622,0.000114233,42.1555,""
61506.5,20,0.000457679,168.752,0.00011442,42.1881,""
61814.7,20,0.000457271,168.893,0.000114318,42.2233,""
62148.2,20,0.000457219,169.046,0.000114305,42.2615,""
62332.3,20,0.000458569,169.13,0.000114642,42.2825,""
62576,20,0.000458917,169.242,0.000114729,42.3105,""
62790.4,20,0.000458681,169.34,0.00011467,42.335,""
63003.6,20,0.000458341,169.438,0.000114585,42.3595,""
63253.8,20,0.000458871,169.553,0.000114718,42.3881,""
63480.5,20,0.000458146,169.657,0.000114537,42.4141,""
63962.8,20,0.000458968,169.878,0.000114742,42.4695,""
64253.8,20,0.000459587,170.011,0.000114897,42.5029,""
64555.3,20,0.000459325,170.15,0.000114831,42.5375,""
64804.4,20,0.000459438,170.264,0.00011486,42.5661,""
65106.9,20,0.00045949,170.403,0.000114872,42.6008,""
65333.7,20,0.00045997,170.508,0.000114993,42.6269,""
65761.8,20,0.000460345,170.704,0.000115086,42.6761,""
66347.7,20,0.000460253,170.974,0.000115063,42.7435,""
66610,20,0.000460244,171.095,0.000115061,42.7737,""
66876.8,20,0.000459981,171.218,0.000114995,42.8044,""
67337.2,20,0.000461062,171.43,0.000115266,42.8574,""
67645.2,20,0.000461222,171.572,0.000115305,42.8929,""
68101.6,20,0.000461949,171.782,0.000115487,42.9456,""
68444.8,20,0.000462422,171.941,0.000115606,42.9853,""
68839.8,20,0.000461544,172.124,0.000115386,43.0309,""
69083.4,20,0.000461872,172.236,0.000115468,43.059,""
69264.3,20,0.000462247,172.32,0.000115562,43.0799,""
69781,20,0.000462164,172.559,0.000115541,43.1396,""
70012.3,20,0.000462765,172.666,0.000115691,43.1664,""
70199.1,20,0.000462779,172.752,0.000115695,43.188,""
70525.8,20,0.000462695,172.903,0.000115674,43.2258,""
70809.1,20,0.000463078,173.034,0.00011577,43.2585,""
71026.2,20,0.00046268,173.135,0.00011567,43.2837,""
71234.3,20,0.000463058,173.231,0.000115764,43.3078,""
71685.5,20,0.000463437,173.44,0.000115859,43.36,""
71907.5,20,0.000463297,173.543,0.000115824,43.3857,""
72135.1,20,0.000463774,173.648,0.000115943,43.4121,""
72430.3,20,0.00046393,173.785,0.000115983,43.4463,""
72646.5,20,0.00046449,173.886,0.000116123,43.4714,""
73002.2,20,0.000464532,174.051,0.000116133,43.5127,""
73390.4,20,0.000465885,174.231,0.000116471,43.5578,""
73625.4,20,0.000466039,174.341,0.00011651,43.5852,""
74095.9,20,0.000465724,174.56,0.000116431,43.6399,""
74319.1,20,0.000464916,174.664,0.000116229,43.6659,""
74593.5,20,0.000464405,174.791,0.000116101,43.6978,""
74876.8,20,0.000464144,174.923,0.000116036,43.7306,""
75345.6,20,0.000464289,175.14,0.000116072,43.785,""
75799.1,20,0.000464019,175.351,0.000116005,43.8377,""
76229.2,20,0.000464978,175.55,0.000116244,43.8876,""
76440.4,20,0.000464775,175.649,0.000116194,43.9122,""
76700.7,20,0.00046496,175.77,0.00011624,43.9424,""
77105,20,0.000465619,175.958,0.000116405,43.9894,""
77463.1,20,0.000465249,176.124,0.000116312,44.0311,""
77947.4,20,0.000465591,176.35,0.000116398,44.0874,""
78457.2,20,0.000466181,176.587,0.000116545,44.1468,""
79015.7,20,0.000466768,176.848,0.000116692,44.212,""
79383.1,20,0.000466734,177.019,0.000116683,44.2549,""
79772.9,20,0.000467702,177.202,0.000116925,44.3004,""
80117.5,20,0.000466986,177.363,0.000116747,44.3406,""
80378.3,20,0.000466769,177.484,0.000116692,44.3711,""
80581.7,20,0.00046574,177.579,0.000116435,44.3948,""
80995.1,20,0.000465858,177.772,0.000116464,44.4429,""
81233.6,20,0.000465315,177.883,0.000116329,44.4707,""
81559.2,20,0.000464935,178.034,0.000116234,44.5085,""
81889.9,20,0.000465331,178.188,0.000116333,44.547,""
82158.4,20,0.000464627,178.313,0.000116157,44.5782,""
82484.3,20,0.000464525,178.464,0.000116131,44.616,""
82768.1,20,0.000464599,178.596,0.00011615,44.649,""
83258.8,20,0.000464117,178.824,0.000116029,44.7059,""
83479.2,20,0.000464586,178.926,0.000116147,44.7315,""
83931.9,20,0.00046416,179.136,0.00011604,44.784,""
84354,20,0.000464487,179.332,0.000116122,44.833,""
84662.6,20,0.000465054,179.475,0.000116263,44.8689,""
84962.3,20,0.00046572,179.615,0.00011643,44.9037,""
85446.6,20,0.000465605,179.84,0.000116401,44.9601,""
85831.9,20,0.00046537,180.02,0.000116343,45.0049,""
86118.1,20,0.00046518,180.153,0.000116295,45.0382,""
86398,20,0.000465399,180.283,0.00011635,45.0708,""
86782.4,20,0.000464845,180.462,0.000116211,45.1155,""
86973.2,20,0.000465267,180.551,0.000116317,45.1377,""
87208.7,20,0.00046548,180.66,0.00011637,45.1651,""
87448.1,20,0.000464652,180.772,0.000116163,45.1929,""
87815.1,20,0.000464625,180.942,0.000116156,45.2356,""
88147.8,20,0.000464995,181.097,0.000116249,45.2742,""
88375.5,20,0.00046513,181.203,0.000116283,45.3007,""
88724.3,20,0.000464804,181.365,0.000116201,45.3413,""
89020.1,20,0.000465435,181.503,0.000116359,45.3757,""
89290.2,20,0.000465231,181.628,0.000116308,45.4071,""
89661.4,20,0.000466074,181.801,0.000116518,45.4503,""
89919.2,20,0.000465153,181.921,0.000116288,45.4803,""
90163.6,20,0.000465798,182.035,0.000116449,45.5087,""
90540.5,20,0.00046552,182.21,0.00011638,45.5526,""
90865.5,20,0.000465602,182.362,0.0001164,45.5904,""
91199.7,20,0.000465294,182.517,0.000116324,45.6293,""
91503.4,20,0.000464918,182.658,0.000116229,45.6646,""
91788.1,20,0.00046487,182.791,0.000116218,45.6977,""
92032.1,20,0.0004654,182.904,0.00011635,45.7261,""
92384.4,20,0.000465321,183.068,0.00011633,45.7671,""
92641,20,0.000465529,183.188,0.000116382,45.7969,""
92898.7,20,0.000466043,183.308,0.000116511,45.827,""
93122,20,0.000465952,183.412,0.000116488,45.853,""
93451.3,20,0.000465559,183.565,0.00011639,45.8913,""
93774.1,20,0.000465364,183.716,0.000116341,45.9289,""
94280.7,20,0.000466685,183.952,0.000116671,45.988,""
94671.8,20,0.000466082,184.134,0.00011652,46.0336,""
94909.7,20,0.000466285,184.245,0.000116571,46.0614,""
95353.1,20,0.000466661,184.452,0.000116665,46.1131,""
95579.8,20,0.000466791,184.558,0.000116698,46.1395,""
96327.9,20,0.000467226,184.907,0.000116807,46.2268,""
96547.5,20,0.000466497,185.01,0.000116624,46.2525,""
96864.9,20,0.000466925,185.158,0.000116731,46.2895,""
97230.5,20,0.000466344,185.329,0.000116586,46.3322,""
97501.1,20,0.000466717,185.455,0.000116679,46.3637,""
97725.6,20,0.000466589,185.56,0.000116647,46.3899,""
98132.7,20,0.000466283,185.75,0.000116571,46.4374,""
98351.9,20,0.000466757,185.852,0.000116689,46.4629,""
98555,20,0.000466266,185.947,0.000116566,46.4866,""
98777.1,20,0.000466444,186.05,0.000116611,46.5125,""
99015.2,20,0.000466096,186.161,0.000116524,46.5403,""
99279.9,20,0.000466833,186.285,0.000116708,46.5712,""
99712.2,20,0.000466644,186.486,0.000116661,46.6216,""
100135,20,0.000467275,186.684,0.000116819,46.671,""
100373,20,0.000466995,186.795,0.000116749,46.6987,""
100687,20,0.000467255,186.942,0.000116814,46.7354,""
100963,20,0.000467122,187.071,0.00011678,46.7676,""
101396,20,0.000466722,187.273,0.00011668,46.8182,""
101725,20,0.000467668,187.426,0.000116917,46.8566,""
102013,20,0.000466944,187.561,0.000116736,46.8902,""
102236,20,0.000467446,187.665,0.000116861,46.9162,""
102539,20,0.000466674,187.806,0.000116668,46.9516,""
103029,20,0.000467029,188.035,0.000116757,47.0088,""
103502,20,0.000466845,188.256,0.000116711,47.0639,""
103941,20,0.000466177,188.46,0.000116544,47.1151,""
104260,20,0.000465787,188.609,0.000116447,47.1522,""
104576,20,0.000466118,188.756,0.000116529,47.1891,""
104897,20,0.000465904,188.906,0.000116476,47.2265,""
105266,20,0.000465858,189.077,0.000116464,47.2694,""
105702,20,0.000466529,189.28,0.000116632,47.3201,""
105951,20,0.000465291,189.397,0.000116323,47.3492,""
106182,20,0.00046516,189.504,0.00011629,47.376,""
106411,20,0.000465498,189.611,0.000116374,47.4027,""
106697,20,0.000465636,189.744,0.000116409,47.436,""
107170,20,0.000465096,189.964,0.000116274,47.491,""
107368,20,0.000465834,190.056,0.000116459,47.514,""
107669,20,0.000465747,190.196,0.000116437,47.549,""
107876,20,0.000465627,190.293,0.000116407,47.5731,""
108136,20,0.000466372,190.414,0.000116593,47.6035,""
108390,20,0.000465972,190.532,0.000116493,47.6331,""
108700,20,0.000466255,190.677,0.000116564,47.6692,""
109051,20,0.000465994,190.841,0.000116499,47.7101,""
109322,20,0.000466361,190.967,0.00011659,47.7417,""
109744,20,0.000466083,191.164,0.000116521,47.7909,""
110019,20,0.000466219,191.292,0.000116555,47.8229,""
110249,20,0.000465037,191.398,0.000116259,47.8496,""
110595,20,0.000466189,191.56,0.000116547,47.8899,""
110992,20,0.000467076,191.745,0.000116769,47.9362,""
111242,20,0.00046715,191.861,0.000116787,47.9654,""
111489,20,0.000467226,191.977,0.000116807,47.9943,""
111746,20,0.000467415,192.097,0.000116854,48.0243,""
112063,20,0.000467975,192.245,0.000116994,48.0613,""
112307,20,0.000468091,192.359,0.000117023,48.0898,""
112748,20,0.000467183,192.566,0.000116796,48.1415,""
113411,20,0.000467235,192.876,0.000116809,48.2189,""
113764,20,0.000467415,193.041,0.000116854,48.2602,""
113955,20,0.000467759,193.13,0.00011694,48.2825,""
114252,20,0.000468252,193.269,0.000117063,48.3172,""
114638,20,0.000468086,193.45,0.000117022,48.3624,""
114880,20,0.000468072,193.563,0.000117018,48.3907,""
115116,20,0.000468486,193.673,0.000117122,48.4184,""
115491,20,0.000468749,193.849,0.000117187,48.4622,""
115837,20,0.000468617,194.011,0.000117154,48.5027,""
116166,20,0.000468518,194.165,0.000117129,48.5413,""
116455,20,0.000468915,194.301,0.000117229,48.5752,""
116802,20,0.000468513,194.463,0.000117128,48.6158,""
117055,20,0.000468689,194.582,0.000117172,48.6455,""
117354,20,0.000469127,194.722,0.000117282,48.6805,""
117703,20,0.000468439,194.886,0.00011711,48.7214,""
118063,20,0.000469439,195.055,0.00011736,48.7637,""
118404,20,0.000469764,195.215,0.000117441,48.8037,""
118818,20,0.000470463,195.409,0.000117616,48.8523,""
119070,20,0.000470423,195.528,0.000117606,48.882,""
119345,20,0.000471225,195.657,0.000117806,48.9143,""
119680,20,0.000471272,195.815,0.000117818,48.9538,""
120039,20,0.000472251,195.984,0.000118063,48.9961,""
120404,20,0.000472328,196.157,0.000118082,49.0392,""
120694,20,0.000472566,196.294,0.000118141,49.0735,""
120975,20,0.000472947,196.426,0.000118237,49.1066,""
121281,20,0.000473601,196.571,0.0001184,49.1428,""
121574,20,0.000473492,196.71,0.000118373,49.1775,""
121853,20,0.000474315,196.842,0.000118579,49.2106,""
122144,20,0.000474422,196.981,0.000118606,49.2451,""
122359,20,0.00047504,197.083,0.00011876,49.2707,""
122590,20,0.000475031,197.192,0.000118758,49.298,""
122996,20,0.000474853,197.385,0.000118713,49.3462,""
123285,20,0.000474595,197.523,0.000118649,49.3807,""
123550,20,0.000474581,197.648,0.000118645,49.4121,""
123800,20,0.000475316,197.767,0.000118829,49.4417,""
124241,20,0.000474945,197.977,0.000118736,49.4942,""
124646,20,0.0004748,198.169,0.0001187,49.5422,""
125023,20,0.00047513,198.348,0.000118782,49.587,""
125478,20,0.000475191,198.564,0.000118798,49.641,""
126060,20,0.000475704,198.841,0.000118926,49.7103,""
126442,20,0.000476402,199.023,0.000119101,49.7556,""
126817,20,0.000475925,199.201,0.000118981,49.8004,""
127219,20,0.000476238,199.393,0.000119059,49.8482,""
127533,20,0.000476829,199.542,0.000119207,49.8856,""
127779,20,0.00047675,199.66,0.000119187,49.9149,""
128041,20,0.000477252,199.785,0.000119313,49.9462,""
128385,20,0.000477202,199.949,0.000119301,49.9873,""
128716,20,0.000477683,200.107,0.000119421,50.0267,""
129065,20,0.00047794,200.274,0.000119485,50.0685,""
129342,20,0.000477896,200.406,0.000119474,50.1016,""
129614,20,0.000479611,200.537,0.000119903,50.1341,""
130087,20,0.000479943,200.763,0.000119986,50.1909,""
130238,20,0.000480962,200.836,0.00012024,50.209,""
130547,20,0.000482232,200.985,0.000120558,50.2462,""
130761,20,0.000482928,201.088,0.000120732,50.272,""
131055,20,0.000483322,201.23,0.00012083,50.3075,""
131297,20,0.000484331,201.347,0.000121083,50.3367,""
131620,20,0.000484899,201.503,0.000121225,50.3758,""
131894,20,0.000485859,201.636,0.000121465,50.4091,""
132218,20,0.000486132,201.794,0.000121533,50.4485,""
132482,20,0.000487128,201.923,0.000121782,50.4806,""
132736,20,0.000487337,202.046,0.000121834,50.5115,""
132922,20,0.000488166,202.137,0.000122042,50.5342,""
133150,20,0.000488274,202.248,0.000122068,50.5621,""
133332,20,0.000488789,202.337,0.000122197,50.5842,""
133709,20,0.000489745,202.522,0.000122436,50.6304,""
134016,20,0.000490243,202.672,0.000122561,50.6681,""
134373,20,0.000491989,202.847,0.000122997,50.7118,""
134786,20,0.000493402,203.051,0.00012335,50.7627,""
135259,20,0.000494779,203.285,0.000123695,50.8212,""
135532,20,0.000495331,203.419,0.000123833,50.8548,""
136072,20,0.000497404,203.688,0.000124351,50.9219,""
136377,20,0.000498666,203.84,0.000124667,50.9599,""
136654,20,0.000500085,203.978,0.000125021,50.9945,""
137034,20,0.000500606,204.168,0.000125152,51.042,""
137277,20,0.000502079,204.29,0.00012552,51.0724,""
137569,20,0.000501921,204.436,0.00012548,51.1091,""
137859,20,0.000503497,204.582,0.000125874,51.1455,""
138073,20,0.000504398,204.69,0.0001261,51.1724,""
138269,20,0.000505235,204.789,0.000126309,51.1972,""
138563,20,0.000507305,204.938,0.000126826,51.2345,""
138897,20,0.00050912,205.107,0.00012728,51.2768,""
139115,20,0.000511012,205.219,0.000127753,51.3047,""
139329,20,0.000512274,205.328,0.000128069,51.332,""
139669,20,0.000514567,205.503,0.000128642,51.3757,""
139991,20,0.000516566,205.668,0.000129141,51.4171,""
140151,20,0.000518064,205.752,0.000129516,51.4379,""
140359,20,0.000519555,205.859,0.000129889,51.4648,""
140725,20,0.000521673,206.05,0.000130418,51.5125,""
141062,20,0.000523295,206.226,0.000130824,51.5565,""
141278,20,0.000525286,206.339,0.000131322,51.5847,""
141515,20,0.000526315,206.464,0.000131579,51.616,""
141677,20,0.000528169,206.549,0.000132042,51.6373,""
142047,20,0.000531023,206.745,0.000132756,51.6863,""
142390,20,0.000534234,206.928,0.000133558,51.7319,""
142690,20,0.00053563,207.088,0.000133907,51.7721,""
142982,20,0.000538629,207.245,0.000134657,51.8113,""
143360,20,0.000542172,207.45,0.000135543,51.8624,""
143961,20,0.000547853,207.778,0.000136963,51.9444,""
144273,20,0.000552656,207.949,0.000138164,51.9873,""
144482,20,0.00055417,208.065,0.000138543,52.0161,""
144951,20,0.000559381,208.326,0.000139845,52.0815,""
145061,20,0.000559857,208.388,0.000139964,52.0969,""
145277,20,0.000562078,208.509,0.000140519,52.1272,""
145617,20,0.000567802,208.701,0.00014195,52.1753,""
146224,20,0.000574274,209.048,0.000143568,52.2619,""
146480,20,0.000578865,209.195,0.000144716,52.2987,""
146626,20,0.000581206,209.28,0.000145301,52.3199,""
146846,20,0.000583923,209.408,0.000145981,52.352,""
147021,20,0.000587231,209.511,0.000146808,52.3776,""
147218,20,0.000589538,209.626,0.000147385,52.4066,""
147348,20,0.000592277,209.703,0.000148069,52.4258,""
147518,20,0.000594423,209.804,0.000148606,52.4511,""
147840,20,0.00059948,209.996,0.00014987,52.4991,""
148112,20,0.000605029,210.16,0.000151257,52.54,""
148271,20,0.000607659,210.257,0.000151915,52.5642,""
148503,20,0.000612137,210.398,0.000153034,52.5996,""
148725,20,0.000615706,210.534,0.000153927,52.6336,""
148934,20,0.000619864,210.664,0.000154966,52.666,""
149208,20,0.000625558,210.834,0.000156389,52.7086,""
149434,20,0.000630125,210.976,0.000157531,52.744,""
149604,20,0.000633211,211.083,0.000158303,52.7708,""
149834,20,0.000638348,211.229,0.000159587,52.8073,""
150125,20,0.000644676,211.416,0.000161169,52.854,""
150376,20,0.00065074,211.579,0.000162685,52.8947,""
150739,20,0.000658626,211.816,0.000164657,52.9541,""
150923,20,0.00066362,211.938,0.000165905,52.9845,""
151091,20,0.000668021,212.05,0.000167005,53.0126,""
151422,20,0.000676085,212.272,0.000169021,53.0681,""
151779,20,0.000685385,212.516,0.000171346,53.129,""
152274,20,0.000698828,212.858,0.000174707,53.2145,""
152726,20,0.00071241,213.177,0.000178102,53.2944,""
153041,20,0.000721977,213.403,0.000180494,53.3508,""
153666,20,0.000742669,213.861,0.000185667,53.4653,""
154208,20,0.000761733,214.269,0.000190433,53.5672,""
154584,20,0.000774714,214.557,0.000193679,53.6393,""
154823,20,0.000784161,214.744,0.00019604,53.686,""
155418,20,0.000807432,215.217,0.000201858,53.8042,""
155707,20,0.000818972,215.452,0.000204743,53.863,""
155968,20,0.00083007,215.667,0.000207517,53.9168,""
156409,20,0.000849957,216.038,0.000212489,54.0094,""
156802,20,0.000866718,216.375,0.00021668,54.0938,""
157157,20,0.000884246,216.686,0.000221062,54.1714,""
157489,20,0.000900389,216.982,0.000225097,54.2455,""
157658,20,0.000908788,217.135,0.000227197,54.2836,""
158034,20,0.000927649,217.48,0.000231912,54.3701,""
158338,20,0.000944538,217.764,0.000236134,54.4411,""
158735,20,0.000967081,218.144,0.00024177,54.536,""
159194,20,0.000992219,218.594,0.000248055,54.6484,""
159651,20,0.00101962,219.053,0.000254904,54.7634,""
160187,20,0.00105377,219.609,0.000263442,54.9023,""
160490,20,0.00107394,219.931,0.000268485,54.9828,""
160911,20,0.00110162,220.389,0.000275405,55.0973,""
161463,20,0.0011396,221.008,0.0002849,55.252,""
161786,20,0.00116236,221.38,0.000290591,55.3449,""
162340,20,0.00120354,222.035,0.000300884,55.5087,""
162662,20,0.00122814,222.426,0.000307036,55.6066,""
163115,20,0.00126497,222.991,0.000316242,55.7477,""
163509,20,0.00129734,223.496,0.000324334,55.874,""
164246,20,0.00135957,224.475,0.000339893,56.1187,""
164584,20,0.00139002,224.94,0.000347504,56.2349,""
164795,20,0.00140976,225.235,0.00035244,56.3087,""
165185,20,0.00144547,225.791,0.000361367,56.4478,""
165720,20,0.0014976,226.579,0.0003744,56.6447,""
166307,20,0.00155456,227.475,0.000388641,56.8687,""
166745,20,0.00159885,228.166,0.000399713,57.0414,""
167193,20,0.00164553,228.892,0.000411383,57.223,""
167497,20,0.00167706,229.396,0.000419266,57.3489,""
167873,20,0.00171861,230.035,0.000429654,57.5086,""
168466,20,0.00178497,231.074,0.000446242,57.7684,""
168956,20,0.00184124,231.962,0.000460311,57.9905,""
169402,20,0.00189341,232.795,0.000473353,58.1988,""
169874,20,0.00195036,233.702,0.000487589,58.4254,""
170475,20,0.00202334,234.895,0.000505835,58.7239,""
170906,20,0.00207766,235.78,0.000519414,58.9451,""
171162,20,0.00210999,236.314,0.000527498,59.0786,""
171709,20,0.00218072,237.488,0.000545181,59.3719,""
172020,20,0.00222149,238.173,0.000555372,59.5432,""
172499,20,0.00228588,239.253,0.00057147,59.8132,""
172859,20,0.00233362,240.084,0.000583406,60.021,""
173041,20,0.00235886,240.511,0.000589715,60.1278,""
173536,20,0.00242607,241.695,0.000606518,60.4237,""
173862,20,0.00247045,242.493,0.000617612,60.6232,""
174386,20,0.00254443,243.808,0.000636108,60.9519,""
174793,20,0.00260213,244.856,0.000650533,61.2139,""
175067,20,0.0026417,245.572,0.000660424,61.3931,""
175540,20,0.0027099,246.839,0.000677475,61.7098,""
176195,20,0.00280639,248.645,0.000701598,62.1613,""
176544,20,0.00285669,249.632,0.000714172,62.4081,""
176739,20,0.00288567,250.193,0.000721417,62.5482,""
177076,20,0.00293625,251.174,0.000734061,62.7936,""
177315,20,0.00297103,251.881,0.000742757,62.9701,""
177671,20,0.00302383,252.948,0.000755959,63.2371,""
178118,20,0.00309101,254.312,0.000772753,63.5781,""
178401,20,0.00313334,255.196,0.000783334,63.799,""
178740,20,0.00318381,256.266,0.000795952,64.0665,""
179092,20,0.00323788,257.395,0.00080947,64.3489,""
179481,20,0.00329604,258.668,0.00082401,64.6669,""
180234,20,0.00340953,261.191,0.000852383,65.2978,""
180562,20,0.00345942,262.317,0.000864854,65.5793,""
181112,20,0.00354217,264.243,0.000885543,66.0607,""
181596,20,0.00361448,265.976,0.000903619,66.4939,""
181864,20,0.00365556,266.948,0.00091389,66.737,""
182172,20,0.00370119,268.082,0.000925297,67.0205,""
182380,20,0.00373276,268.857,0.000933189,67.2142,""
182766,20,0.00378993,270.305,0.000947483,67.5763,""
183122,20,0.0038423,271.665,0.000960575,67.9163,""
183371,20,0.00387823,272.627,0.000969558,68.1567,""
183651,20,0.00392074,273.718,0.000980184,68.4295,""
183934,20,0.00396227,274.835,0.000990568,68.7087,""
184462,20,0.00404175,276.946,0.00101044,69.2366,""
184745,20,0.00408345,278.098,0.00102086,69.5244,""
185095,20,0.00413533,279.535,0.00103383,69.8839,""
185255,20,0.00415894,280.2,0.00103973,70.05,""
185518,20,0.00419774,281.299,0.00104944,70.3248,""
185862,20,0.00424843,282.749,0.00106211,70.6873,""
186282,20,0.00430892,284.547,0.00107723,71.1367,""
186583,20,0.00435249,285.852,0.00108812,71.463,""
186914,20,0.00439819,287.3,0.00109955,71.8251,""
187307,20,0.00445427,289.038,0.00111357,72.2595,""
187677,20,0.00450675,290.698,0.00112669,72.6744,""
188027,20,0.004555,292.282,0.00113875,73.0705,""
188684,20,0.00464571,295.302,0.00116143,73.8256,""
189244,20,0.00472102,297.927,0.00118026,74.4817,""
189468,20,0.0047507,298.989,0.00118768,74.7473,""
189824,20,0.00479832,300.688,0.00119958,75.172,""
190163,20,0.00484343,302.32,0.00121086,75.5799,""
190419,20,0.00487615,303.565,0.00121904,75.8912,""
190779,20,0.00492359,305.33,0.0012309,76.3326,""
191090,20,0.00496345,306.866,0.00124086,76.7165,""
191790,20,0.005052,310.371,0.001263,77.5928,""
192142,20,0.00509495,312.156,0.00127374,78.0391,""
192547,20,0.00514475,314.233,0.00128619,78.5583,""
192870,20,0.00518468,315.901,0.00129617,78.9754,""
193211,20,0.00522574,317.673,0.00130643,79.4183,""
193858,20,0.00530165,321.079,0.00132541,80.2697,""
194296,20,0.00535334,323.414,0.00133833,80.8536,""
194743,20,0.00540465,325.819,0.00135116,81.4547,""
195011,20,0.00543486,327.273,0.00135871,81.8181,""
195212,20,0.00545794,328.368,0.00136448,82.092,""
195517,20,0.00549092,330.035,0.00137273,82.5087,""
195841,20,0.00552725,331.822,0.00138181,82.9554,""
196131,20,0.00555863,333.426,0.00138966,83.3565,""
196469,20,0.00559357,335.314,0.00139839,83.8284,""
196719,20,0.00562085,336.716,0.00140521,84.1789,""
196908,20,0.00564141,337.779,0.00141035,84.4448,""
197208,20,0.00567365,339.479,0.00141841,84.8696,""
197397,20,0.00569265,340.551,0.00142316,85.1377,""
197619,20,0.0057164,341.82,0.0014291,85.4549,""
197913,20,0.00574493,343.501,0.00143623,85.8752,""
198272,20,0.00578117,345.569,0.00144529,86.3923,""
198644,20,0.00581896,347.726,0.00145474,86.9316,""
198946,20,0.00584847,349.489,0.00146212,87.3723,""
199321,20,0.00588411,351.688,0.00147103,87.9219,""
199801,20,0.00592892,354.525,0.00148223,88.6313,""
200163,20,0.00596278,356.679,0.0014907,89.1697,""
200663,20,0.00600796,359.67,0.00150199,89.9176,""
201011,20,0.00603913,361.765,0.00150978,90.4412,""
201545,20,0.0060852,365.005,0.0015213,91.2513,""
201812,20,0.00610785,366.629,0.00152696,91.6573,""
202252,20,0.0061433,369.327,0.00153583,92.3317,""
202641,20,0.00617571,371.726,0.00154393,92.9315,""
202862,20,0.00619335,373.091,0.00154834,93.2728,""
203113,20,0.00621337,374.648,0.00155334,93.6619,""
203387,20,0.00623431,376.352,0.00155858,94.0879,""
203742,20,0.00626163,378.571,0.00156541,94.6428,""
204087,20,0.00628704,380.732,0.00157176,95.1831,""
204490,20,0.00631721,383.277,0.0015793,95.8191,""
205138,20,0.00636238,387.38,0.0015906,96.8451,""
205531,20,0.00638901,389.887,0.00159725,97.4716,""
205749,20,0.00640357,391.283,0.00160089,97.8208,""
206004,20,0.00642087,392.921,0.00160522,98.2302,""
206602,20,0.00645856,396.77,0.00161464,99.1926,""
206909,20,0.00647744,398.756,0.00161936,99.6889,""
207164,20,0.00649225,400.407,0.00162306,100.102,""
207633,20,0.00651969,403.459,0.00162992,100.865,""
208136,20,0.00654829,406.749,0.00163707,101.687,""
208481,20,0.00656547,409.01,0.00164137,102.253,""
208737,20,0.00658396,410.694,0.00164599,102.673,""
208961,20,0.00659533,412.165,0.00164883,103.041,""
209315,20,0.00660964,414.505,0.00165241,103.626,""
209695,20,0.00662936,417.019,0.00165734,104.255,""
210327,20,0.00665521,421.218,0.0016638,105.305,""
210764,20,0.00667241,424.133,0.0016681,106.033,""
211096,20,0.00668541,426.349,0.00167135,106.587,""
211352,20,0.00669502,428.064,0.00167375,107.016,""
211691,20,0.00670598,430.332,0.0016765,107.583,""
211916,20,0.00671442,431.839,0.0016786,107.96,""
212426,20,0.00673238,435.273,0.0016831,108.818,""
212694,20,0.00674097,437.075,0.00168524,109.269,""
212962,20,0.00674862,438.881,0.00168715,109.72,""
213434,20,0.00676305,442.072,0.00169076,110.518,""
213872,20,0.00677448,445.037,0.00169362,111.259,""
214167,20,0.00678181,447.039,0.00169545,111.76,""
214530,20,0.00678847,449.497,0.00169712,112.374,""
214825,20,0.00679516,451.506,0.00169879,112.877,""
215285,20,0.00680297,454.629,0.00170074,113.657,""
215467,20,0.00680623,455.871,0.00170156,113.968,""
215776,20,0.00681051,457.971,0.00170263,114.493,""
216214,20,0.00681599,460.96,0.001704,115.24,""
216721,20,0.00682145,464.415,0.00170536,116.104,""
216901,20,0.00682363,465.646,0.00170591,116.412,""
217324,20,0.00682541,468.527,0.00170635,117.132,""
217737,20,0.00682928,471.351,0.00170732,117.838,""
217984,20,0.00682953,473.039,0.00170738,118.26,""
218300,20,0.00683015,475.198,0.00170754,118.799,""
218862,20,0.0068293,479.031,0.00170733,119.758,""
219122,20,0.00682847,480.808,0.00170712,120.202,""
219428,20,0.00682787,482.898,0.00170697,120.725,""
219656,20,0.00682711,484.455,0.00170678,121.114,""
220193,20,0.00682356,488.122,0.00170589,122.031,""
220820,20,0.00681945,492.394,0.00170486,123.099,""
221298,20,0.00681463,495.654,0.00170366,123.913,""
221912,20,0.0068084,499.836,0.0017021,124.959,""
222313,20,0.00680314,502.57,0.00170079,125.642,""
222503,20,0.00680036,503.863,0.00170009,125.966,""
222974,20,0.00679384,507.062,0.00169846,126.765,""
223225,20,0.00678984,508.764,0.00169746,127.191,""
223496,20,0.00678491,510.607,0.00169623,127.652,""
223799,20,0.00678012,512.66,0.00169503,128.165,""
223992,20,0.00677629,513.969,0.00169407,128.492,""
224210,20,0.00677103,515.446,0.00169276,128.862,""
224517,20,0.00676559,517.526,0.0016914,129.382,""
224891,20,0.00675676,520.051,0.00168919,130.013,""
225212,20,0.00675036,522.218,0.00168759,130.554,""
225623,20,0.00674032,524.995,0.00168508,131.249,""
225946,20,0.0067365,527.169,0.00168412,131.792,""
226373,20,0.00672083,530.044,0.00168021,132.511,""
226627,20,0.00671044,531.751,0.00167761,132.938,""
227012,20,0.00669996,534.328,0.00167499,133.582,""
227349,20,0.006691,536.588,0.00167275,134.147,""
227796,20,0.00667724,539.573,0.00166931,134.893,""
228207,20,0.00666463,542.317,0.00166616,135.579,""
228436,20,0.00665668,543.843,0.00166417,135.961,""
228597,20,0.00665196,544.91,0.00166299,136.228,""
228904,20,0.00664115,546.953,0.00166029,136.738,""
229227,20,0.00662915,549.098,0.00165729,137.274,""
229879,20,0.00660528,553.41,0.00165132,138.352,""
230030,20,0.00660007,554.411,0.00165002,138.603,""
230346,20,0.00658772,556.494,0.00164693,139.124,""
230749,20,0.00657319,559.141,0.0016433,139.785,""
231271,20,0.00655154,562.569,0.00163788,140.642,""
231718,20,0.00653362,565.495,0.00163341,141.374,""
232236,20,0.00651166,568.872,0.00162792,142.218,""
232677,20,0.00649109,571.741,0.00162277,142.935,""
233249,20,0.00646565,575.442,0.00161641,143.86,""
233528,20,0.00645158,577.245,0.00161289,144.311,""
234091,20,0.0064256,580.869,0.0016064,145.217,""
234759,20,0.00639411,585.151,0.00159853,146.288,""
235650,20,0.00634897,590.833,0.00158724,147.708,""
236313,20,0.00631293,595.027,0.00157823,148.757,""
236767,20,0.00628852,597.889,0.00157213,149.472,""
237117,20,0.00626827,600.084,0.00156707,150.021,""
237450,20,0.00624884,602.172,0.00156221,150.543,""
237691,20,0.0062347,603.676,0.00155867,150.919,""
238019,20,0.00621597,605.717,0.00155399,151.429,""
238282,20,0.00619954,607.35,0.00154988,151.837,""
238591,20,0.00618011,609.259,0.00154503,152.315,""
238847,20,0.00616445,610.839,0.00154111,152.71,""
239131,20,0.00614716,612.588,0.00153679,153.147,""
239735,20,0.00610659,616.29,0.00152665,154.073,""
240093,20,0.00608268,618.472,0.00152067,154.618,""
240571,20,0.00604955,621.371,0.00151239,155.343,""
241044,20,0.00601693,624.227,0.00150423,156.057,""
241278,20,0.00600031,625.631,0.00150008,156.408,""
241660,20,0.0059729,627.917,0.00149323,156.979,""
241929,20,0.00595325,629.525,0.00148831,157.381,""
242357,20,0.00592193,632.065,0.00148048,158.016,""
242775,20,0.00589008,634.533,0.00147252,158.633,""
243193,20,0.00585727,636.99,0.00146432,159.247,""
243415,20,0.00584047,638.287,0.00146012,159.572,""
243667,20,0.00582101,639.758,0.00145525,159.939,""
244049,20,0.00579065,641.973,0.00144766,160.493,""
244248,20,0.00577385,643.126,0.00144346,160.782,""
244689,20,0.00573844,645.663,0.00143461,161.416,""
245263,20,0.00569223,648.943,0.00142306,162.236,""
245528,20,0.00567049,650.446,0.00141762,162.612,""
245871,20,0.00564143,652.389,0.00141036,163.097,""
246259,20,0.00560888,654.571,0.00140222,163.643,""
246559,20,0.0055817,656.249,0.00139542,164.062,""
246928,20,0.00554823,658.304,0.00138706,164.576,""
247216,20,0.00552204,659.895,0.00138051,164.974,""
247581,20,0.00548782,661.906,0.00137195,165.477,""
248087,20,0.00544142,664.672,0.00136035,166.168,""
248407,20,0.00541181,666.41,0.00135295,166.602,""
249052,20,0.00535022,669.879,0.00133755,167.47,""
249591,20,0.00529835,672.748,0.00132459,168.187,""
250026,20,0.00525595,675.042,0.00131399,168.761,""
250434,20,0.00521485,677.18,0.00130371,169.295,""
250974,20,0.00516102,679.98,0.00129026,169.995,""
251363,20,0.00512175,681.981,0.00128044,170.495,""
251665,20,0.00509014,683.525,0.00127254,170.881,""
251920,20,0.00506491,684.816,0.00126623,171.204,""
252288,20,0.00502708,686.674,0.00125677,171.669,""
253193,20,0.0049328,691.182,0.0012332,172.796,""
253565,20,0.0048933,693.011,0.00122333,173.253,""
253856,20,0.00486184,694.43,0.00121546,173.607,""
254086,20,0.00483888,695.543,0.00120972,173.886,""
254390,20,0.00480633,697.013,0.00120158,174.253,""
254887,20,0.00475404,699.388,0.00118851,174.847,""
255160,20,0.00472669,700.68,0.00118167,175.17,""
255826,20,0.00465694,703.805,0.00116424,175.951,""
256145,20,0.00462354,705.288,0.00115589,176.322,""
256565,20,0.00458134,707.22,0.00114533,176.805,""
256806,20,0.00455716,708.318,0.00113929,177.08,""
257305,20,0.00450498,710.581,0.00112624,177.645,""
257714,20,0.00446406,712.414,0.00111601,178.103,""
257925,20,0.00444238,713.354,0.00111059,178.338,""
258671,20,0.00436742,716.643,0.00109185,179.161,""
258902,20,0.00434452,717.648,0.00108613,179.412,""
259274,20,0.0043068,719.258,0.0010767,179.815,""
259638,20,0.0042709,720.819,0.00106772,180.205,""
259895,20,0.00424593,721.913,0.00106148,180.478,""
260114,20,0.00422486,722.84,0.00105622,180.71,""
260336,20,0.0042034,723.775,0.00105085,180.944,""
260517,20,0.00418695,724.534,0.00104674,181.134,""
260786,20,0.00415991,725.658,0.00103998,181.414,""
261055,20,0.0041353,726.771,0.00103383,181.693,""
261334,20,0.00410898,727.924,0.00102725,181.981,""
261672,20,0.00407766,729.308,0.00101942,182.327,""
262075,20,0.00404153,730.942,0.00101038,182.736,""
262366,20,0.00401457,732.116,0.00100364,183.029,""
262626,20,0.00399018,733.157,0.000997545,183.289,""
263075,20,0.00395066,734.936,0.000987666,183.734,""
263541,20,0.00391092,736.771,0.000977729,184.193,""
263872,20,0.00388058,738.06,0.000970145,184.515,""
264095,20,0.00386184,738.924,0.000965459,184.731,""
264102,20,0.00386122,738.95,0.000965306,184.738,""
264109,20,0.0038606,738.977,0.000965149,184.744,""
264116,20,0.00385997,739.004,0.000964992,184.751,""
264123,20,0.00385934,739.031,0.000964835,184.758,""
264130,20,0.00385871,739.058,0.000964678,184.765,""
264137,20,0.00385808,739.085,0.000964521,184.771,""
264144,20,0.00385746,739.112,0.000964364,184.778,""
264146,20,0.00385732,739.118,0.000964331,184.779,""
264146,20,NaN,NaN,NaN,NaN,""
264147,20,NaN,NaN,NaN,NaN,""
264148,20,NaN,NaN,NaN,NaN,""
264149,20,NaN,NaN,NaN,NaN,""
264150,20,NaN,NaN,NaN,NaN,""
264151,20,NaN,NaN,NaN,NaN,"Ampoule removed"
264151,20,NaN,NaN,NaN,NaN,""
264152,20,NaN,NaN,NaN,NaN,""