File: TAInstCalorimetry/DATA/peak_detection_example7.csv
"Time","Temperature [AmbientT(Therm3T)]","Temperature [Temperature]","Heat flow [Signal]","Heat [Signal]","Normalized heat flow [Signal]","Normalized heat [Signal]","Time markers"
-2394.9,21.9503,20.0002,NaN,NaN,NaN,NaN,""
-2394.23,21.9515,20.0002,-5.26514e-08,NaN,-1.20181e-08,NaN,""
-2374.83,21.985,20.0003,3.19484e-07,NaN,7.29248e-08,NaN,""
-2361.25,22.0491,20.0003,-1.19996e-07,NaN,-2.73901e-08,NaN,""
-2349.66,22.1416,20.0001,-4.95203e-07,NaN,-1.13034e-07,NaN,""
-2335.77,22.1058,20,-4.92881e-07,NaN,-1.12504e-07,NaN,""
-2324.32,22.0764,19.9999,1.21236e-06,NaN,2.76731e-07,NaN,""
-2321.15,22.068,19.9999,3.53435e-07,NaN,8.06746e-08,NaN,""
-2317.98,22.0592,19.9998,-5.05486e-07,NaN,-1.15381e-07,NaN,""
-2301.92,22.0147,19.9999,-4.31147e-07,NaN,-9.84129e-08,NaN,""
-2285.86,21.9701,20.0001,-3.56808e-07,NaN,-8.14444e-08,NaN,""
-2269.53,21.9713,20.0001,2.99188e-07,NaN,6.82921e-08,NaN,""
-2252.35,22.0074,20.0001,9.89315e-07,NaN,2.25819e-07,NaN,""
-2239.98,22.0165,20,5.14832e-08,NaN,1.17515e-08,NaN,""
-2227.61,22.0204,20,-8.86348e-07,NaN,-2.02316e-07,NaN,""
-2208.16,22.0211,19.9999,-7.52695e-07,NaN,-1.71809e-07,NaN,""
-2195.46,21.9956,19.9999,-6.65456e-07,NaN,-1.51896e-07,NaN,""
-2185.42,21.9863,20,-5.96422e-07,NaN,-1.36138e-07,NaN,""
-2158.12,21.9907,20.0001,-1.92119e-06,NaN,-4.38528e-07,NaN,""
-2149.85,21.9921,20.0002,-1.13211e-06,NaN,-2.58413e-07,NaN,""
-2142.53,21.9933,20.0002,-8.92406e-08,NaN,-2.03699e-08,NaN,""
-2124.14,21.9963,20.0004,-1.48027e-06,NaN,-3.37883e-07,NaN,""
-2111.02,21.9874,20.0003,-1.04459e-06,NaN,-2.38437e-07,NaN,""
-2105.77,21.9832,20.0003,-2.29156e-08,NaN,-5.23068e-09,NaN,""
-2070,21.955,20.0003,-4.8545e-07,NaN,-1.10808e-07,NaN,""
-2069.72,21.9548,20.0003,-4.89112e-07,NaN,-1.11644e-07,NaN,""
-2060.79,21.9662,20.0001,-5.30828e-07,NaN,-1.21166e-07,NaN,""
-2051.86,21.9776,19.9999,-2.66196e-07,NaN,-6.07616e-08,NaN,""
-2041.61,21.9802,19.9999,3.77782e-08,NaN,8.62319e-09,NaN,""
-2022.15,21.9781,20,5.25059e-07,NaN,1.19849e-07,NaN,""
-2001.21,21.9758,20.0001,-1.50846e-07,NaN,-3.44319e-08,NaN,""
-1955.94,21.9709,19.9998,-1.61209e-06,NaN,-3.67974e-07,NaN,""
-1953.44,21.9706,19.9999,-1.69283e-06,NaN,-3.86403e-07,NaN,""
-1933.21,21.9684,20.0001,9.73058e-07,NaN,2.22109e-07,NaN,""
-1915.9,21.9665,20.0003,9.47747e-08,NaN,2.16331e-08,NaN,""
-1901.27,21.9649,20.0001,-6.474e-07,NaN,-1.47775e-07,NaN,""
-1888.68,21.9636,20,-6.77771e-07,NaN,-1.54707e-07,NaN,""
-1855.86,21.96,20,-7.56937e-07,NaN,-1.72777e-07,NaN,""
-1842.22,21.9585,20,-1.16578e-06,NaN,-2.66099e-07,NaN,""
-1826.07,21.9629,20,-1.64988e-06,NaN,-3.766e-07,NaN,""
-1785.54,21.9741,20,-1.22499e-06,NaN,-2.79615e-07,NaN,""
-1745,21.9753,19.9998,-8.00103e-07,NaN,-1.8263e-07,NaN,""
-1713.76,21.9488,19.9998,-1.91857e-06,NaN,-4.3793e-07,NaN,""
-1700.05,21.9371,19.9997,-6.73479e-07,NaN,-1.53727e-07,NaN,""
-1691.49,21.9469,19.9997,-4.3311e-07,NaN,-9.8861e-08,NaN,""
-1678.03,21.9623,19.9997,-6.13579e-07,NaN,-1.40055e-07,NaN,""
-1662.94,21.9795,19.9996,-1.25334e-06,NaN,-2.86086e-07,NaN,""
-1655.96,21.9727,19.9996,-9.1352e-07,NaN,-2.08519e-07,NaN,""
-1642.23,21.9593,19.9998,3.9974e-07,NaN,9.1244e-08,NaN,""
-1627.49,21.9533,20.0001,4.19257e-07,NaN,9.5699e-08,NaN,""
-1611.79,21.9601,20.0001,4.40052e-07,NaN,1.00446e-07,NaN,""
-1594.37,21.9622,20,1.05053e-06,NaN,2.39791e-07,NaN,""
-1576.72,21.9479,20,2.37944e-06,NaN,5.43126e-07,NaN,""
-1552.43,21.9281,19.9999,2.09825e-06,NaN,4.78944e-07,NaN,""
-1528.13,21.9325,19.9998,1.81707e-06,NaN,4.14762e-07,NaN,""
-1510.77,21.9269,19.9997,1.85614e-06,NaN,4.23678e-07,NaN,""
-1483.08,21.8705,19.9996,2.1255e-06,NaN,4.85163e-07,NaN,""
-1477.95,21.8777,19.9996,2.17534e-06,NaN,4.9654e-07,NaN,""
-1461.38,21.9009,19.9999,2.33652e-06,NaN,5.3333e-07,NaN,""
-1448.79,21.9064,20,9.71069e-07,NaN,2.21655e-07,NaN,""
-1432.03,21.8985,19.9999,-8.47273e-07,NaN,-1.93397e-07,NaN,""
-1417.63,21.8917,19.9999,5.39912e-08,NaN,1.23239e-08,NaN,""
-1400.33,21.8878,19.9998,-6.05456e-07,NaN,-1.38201e-07,NaN,""
-1383.03,21.9047,19.9998,-1.2649e-06,NaN,-2.88725e-07,NaN,""
-1368.21,21.9192,19.9998,-1.2687e-06,NaN,-2.89591e-07,NaN,""
-1358.14,21.9104,19.9998,-1.80182e-06,NaN,-4.1128e-07,NaN,""
-1347.82,21.9013,19.9998,-2.95472e-06,NaN,-6.7444e-07,NaN,""
-1333.6,21.9188,19.9998,-2.29806e-06,NaN,-5.24552e-07,NaN,""
-1327.93,21.9393,19.9998,-2.0361e-06,NaN,-4.64757e-07,NaN,""
-1298.7,21.9381,19.9998,-6.85772e-07,NaN,-1.56533e-07,NaN,""
-1281.04,21.9373,19.9999,-2.15782e-06,NaN,-4.9254e-07,NaN,""
-1268.41,21.9368,19.9999,-2.31827e-06,NaN,-5.29165e-07,NaN,""
-1261.23,21.9365,19.9999,-1.64105e-06,NaN,-3.74583e-07,NaN,""
-1232.44,21.9381,19.9998,-3.31258e-06,NaN,-7.56123e-07,NaN,""
-1203.65,21.9404,19.9998,-4.9841e-06,NaN,-1.13766e-06,NaN,""
-1178.83,21.9424,19.9998,-2.46197e-06,NaN,-5.61966e-07,NaN,""
-1170.6,21.9431,19.9998,-3.47076e-06,NaN,-7.9223e-07,NaN,""
-1164.78,21.9645,19.9998,-3.78972e-06,NaN,-8.65036e-07,NaN,""
-1149.65,22.0203,19.9998,-3.172e-06,NaN,-7.24036e-07,NaN,""
-1144.15,22.0143,19.9998,-2.94743e-06,NaN,-6.72777e-07,NaN,""
-1136.72,22.0063,19.9999,-2.68035e-06,NaN,-6.11813e-07,NaN,""
-1129.3,21.9983,20.0001,-2.41912e-06,NaN,-5.52185e-07,NaN,""
-1114.97,21.9903,20,-1.91503e-06,NaN,-4.37122e-07,NaN,""
-1093.82,21.9937,20,7.71135e-07,NaN,1.76018e-07,NaN,""
-1089.12,21.9945,20,1.54755e-06,NaN,3.53241e-07,NaN,""
-1060.07,21.9991,20,1.85409e-06,NaN,4.23213e-07,NaN,""
-1031.02,22.0038,20,2.33634e-06,NaN,5.33289e-07,NaN,""
-1015.93,22.0015,20,3.64937e-06,NaN,8.32998e-07,NaN,""
-1000.84,21.9908,20,4.58977e-06,NaN,1.04765e-06,NaN,""
-980.596,21.9764,20,3.06777e-06,NaN,7.00245e-07,NaN,""
-961.323,21.9626,20.0001,4.77411e-06,NaN,1.08973e-06,NaN,""
-956.898,21.9595,20.0001,4.00191e-06,NaN,9.1347e-07,NaN,""
-947.854,21.9993,20.0001,2.42354e-06,NaN,5.53194e-07,NaN,""
-943.44,22.0187,20.0001,2.87109e-06,NaN,6.55351e-07,NaN,""
-935.071,22.0341,20.0001,3.71968e-06,NaN,8.49047e-07,NaN,""
-926.702,22.0247,20,3.75268e-06,NaN,8.5658e-07,NaN,""
-916.178,22.0146,20,2.87521e-06,NaN,6.56291e-07,NaN,""
-893.979,22.0118,19.9999,1.02426e-06,NaN,2.33795e-07,NaN,""
-891.664,22.0115,19.9998,1.04936e-06,NaN,2.39524e-07,NaN,""
-870.757,22.0089,20.0003,1.276e-06,NaN,2.91257e-07,NaN,""
-870.402,22.0089,20.0003,1.27985e-06,NaN,2.92137e-07,NaN,""
-858.521,22.0509,20.0003,1.40865e-06,NaN,3.21535e-07,NaN,""
-850.144,22.0645,20.0003,1.32064e-06,NaN,3.01447e-07,NaN,""
-798.229,22.0106,20.0001,7.75215e-07,NaN,1.76949e-07,NaN,""
-772.503,21.9918,20,1.7623e-06,NaN,4.0226e-07,NaN,""
-746.777,21.9946,19.9999,2.74939e-06,NaN,6.27571e-07,NaN,""
-728.791,21.9966,19.9999,9.17006e-07,NaN,2.09314e-07,NaN,""
-713.416,21.9982,19.9999,1.97972e-06,NaN,4.51889e-07,NaN,""
-695.083,21.9999,19.9999,8.17345e-07,NaN,1.86566e-07,NaN,""
-676.75,21.9828,19.9999,-3.45033e-07,NaN,-7.87568e-08,NaN,""
-632.659,21.9415,19.9999,6.57881e-07,NaN,1.50167e-07,NaN,""
-599.869,21.991,19.9999,-5.69452e-07,NaN,-1.29982e-07,NaN,""
-595.229,21.999,19.9999,-7.43125e-07,NaN,-1.69624e-07,NaN,""
-575.884,22.0015,19.9999,NaN,NaN,NaN,NaN,""
-523.112,21.9856,19.9999,NaN,NaN,NaN,NaN,""
-470.34,21.9654,19.9999,NaN,NaN,NaN,NaN,""
-419.132,21.9353,19.9999,NaN,NaN,NaN,NaN,""
-395.101,21.9971,19.9999,NaN,NaN,NaN,NaN,""
-372.234,21.8411,19.9999,NaN,NaN,NaN,NaN,""
-349.66,21.9777,20,NaN,NaN,NaN,NaN,""
-315.523,21.9713,20,NaN,NaN,NaN,NaN,""
-311.651,21.9943,20,NaN,NaN,NaN,NaN,""
-298.898,22.0699,19.9998,NaN,NaN,NaN,NaN,""
-267.138,22.0158,19.9995,NaN,NaN,NaN,NaN,""
-240.881,22.0255,19.9997,NaN,NaN,NaN,NaN,""
-227.916,22.0303,19.9999,NaN,NaN,NaN,NaN,""
-209.824,22.037,20.0003,NaN,NaN,NaN,NaN,""
-186.006,22.0661,20,NaN,NaN,NaN,NaN,""
-162.398,22.096,19.9998,NaN,NaN,NaN,NaN,""
-154.142,22.0467,19.9998,NaN,NaN,NaN,NaN,""
-145.886,21.9974,19.9998,NaN,NaN,NaN,NaN,""
-104.47,22.0172,19.9999,NaN,NaN,NaN,NaN,""
-77.3198,21.9211,20,NaN,NaN,NaN,NaN,""
-55.3325,22.006,20.0001,NaN,NaN,NaN,NaN,""
-33.3452,22.0909,20.0001,NaN,NaN,NaN,NaN,""
1.26222,22.137,20,NaN,NaN,NaN,NaN,""
47.8765,22.0881,20,NaN,NaN,NaN,NaN,""
65.513,22.0276,19.9999,NaN,NaN,NaN,NaN,""
77.1082,22.0182,19.9999,NaN,NaN,NaN,NaN,""
101.701,22.0575,19.9997,NaN,NaN,NaN,NaN,""
132.43,22.0613,19.9995,NaN,NaN,NaN,NaN,""
139.165,22.1539,19.9995,NaN,NaN,NaN,NaN,""
145.899,22.2464,19.9996,NaN,NaN,NaN,NaN,""
161.891,22.2754,19.9998,NaN,NaN,NaN,NaN,""
180.166,22.0976,20,NaN,NaN,NaN,NaN,""
192.771,22.0482,20,NaN,NaN,NaN,NaN,""
207.163,22.0942,20,NaN,NaN,NaN,NaN,""
252.608,22.1033,20.0001,NaN,NaN,NaN,NaN,""
257.917,22.1064,20.0001,NaN,NaN,NaN,NaN,""
289.719,22.125,19.9997,NaN,NaN,NaN,NaN,""
309.31,22.0963,19.9998,NaN,NaN,NaN,NaN,""
325.436,22.0707,19.9999,NaN,NaN,NaN,NaN,""
349.652,22.0627,20,NaN,NaN,NaN,NaN,""
375.02,22.0545,19.9998,NaN,NaN,NaN,NaN,""
400.387,22.0661,19.9998,NaN,NaN,NaN,NaN,""
430.957,22.08,20.0001,NaN,NaN,NaN,NaN,""
465.986,22.0486,20,NaN,NaN,NaN,NaN,""
480.446,22.0002,20,NaN,NaN,NaN,NaN,""
501.015,22.0228,19.9999,NaN,NaN,NaN,NaN,""
520.827,22.0447,19.9999,NaN,NaN,NaN,NaN,""
555.258,22.0859,19.9999,NaN,NaN,NaN,NaN,""
595.906,22.0515,19.9999,NaN,NaN,NaN,NaN,""
604.472,22.0528,19.9999,NaN,NaN,NaN,NaN,""
645.821,22.0592,20.0005,NaN,NaN,NaN,NaN,""
653.877,22.0546,20.0003,NaN,NaN,NaN,NaN,""
661.934,22.0432,20,NaN,NaN,NaN,NaN,""
692.372,21.9999,19.9996,NaN,NaN,NaN,NaN,""
714.073,21.9977,19.9997,NaN,NaN,NaN,NaN,""
735.775,22.0089,19.9998,NaN,NaN,NaN,NaN,""
763.083,22.0223,19.9998,NaN,NaN,NaN,NaN,""
790.391,22.0267,19.9997,NaN,NaN,NaN,NaN,""
811.469,22.0301,20.0001,NaN,NaN,NaN,NaN,""
843.891,22.0353,19.9997,NaN,NaN,NaN,NaN,""
862.463,22.0383,19.9998,NaN,NaN,NaN,NaN,""
883.977,21.9846,20,NaN,NaN,NaN,NaN,""
893.01,21.8717,20.0001,NaN,NaN,NaN,NaN,""
907.602,21.9534,20.0001,NaN,NaN,NaN,NaN,""
922.194,22.0351,20,NaN,NaN,NaN,NaN,""
981.201,22.0943,19.9997,NaN,NaN,NaN,NaN,""
1012.99,22.0625,19.9997,NaN,NaN,NaN,NaN,""
1044.78,22.0306,19.9997,NaN,NaN,NaN,NaN,""
1086.56,22.0299,19.9998,NaN,NaN,NaN,NaN,""
1106.91,22.0295,20.0002,NaN,NaN,NaN,NaN,""
1118.68,22.026,20.0001,NaN,NaN,NaN,NaN,""
1135.95,22.0209,19.9997,NaN,NaN,NaN,NaN,""
1174.29,22.0095,19.9998,NaN,NaN,NaN,NaN,""
1196.57,22.014,19.9999,NaN,NaN,NaN,NaN,""
1240.1,22.0228,20.0002,NaN,NaN,NaN,NaN,""
1259.53,22.0267,19.9997,NaN,NaN,NaN,NaN,""
1285.95,22.032,19.9999,NaN,NaN,NaN,NaN,""
1312.41,22.0373,19.9996,NaN,NaN,NaN,NaN,""
1346.38,22.0441,19.9999,NaN,NaN,NaN,NaN,""
1368.25,22.0283,19.9999,NaN,NaN,NaN,NaN,""
1392.57,22.0108,19.9998,NaN,NaN,NaN,NaN,""
1421.83,22.0028,19.9997,NaN,NaN,NaN,NaN,""
1480.92,21.9865,19.9997,NaN,NaN,NaN,NaN,""
1493.25,22.0147,19.9998,NaN,NaN,NaN,NaN,""
1503.01,22.0292,19.9998,NaN,NaN,NaN,NaN,""
1552.23,21.9913,20.0002,NaN,NaN,NaN,NaN,""
1572.17,22.0537,20.0002,NaN,NaN,NaN,NaN,""
1592.11,22.116,19.9998,NaN,NaN,NaN,NaN,""
1605.1,22.0948,19.9998,NaN,NaN,NaN,NaN,""
1618.1,22.0736,19.9999,NaN,NaN,NaN,NaN,""
1638.48,22.1442,20.0002,NaN,NaN,NaN,NaN,""
1649.66,22.1047,20.0003,NaN,NaN,NaN,NaN,""
1656.37,22.0989,20.0003,NaN,NaN,NaN,NaN,""
1678.5,22.11,20.0002,NaN,NaN,NaN,NaN,""
1723.62,22.0513,20.0001,NaN,NaN,NaN,NaN,""
1749.06,22.039,20.0001,NaN,NaN,NaN,NaN,""
1846.6,22.015,20.0003,NaN,NaN,NaN,NaN,""
1863.38,22.0109,19.9999,NaN,NaN,NaN,NaN,""
1914.99,21.9982,19.9999,NaN,NaN,NaN,NaN,""
1953.02,21.9998,19.9998,NaN,NaN,NaN,NaN,""
1973.74,22.0006,19.9995,NaN,NaN,NaN,NaN,""
2034.04,22.0031,19.9998,NaN,NaN,NaN,NaN,""
2082.83,22.0051,19.9999,NaN,NaN,NaN,NaN,""
2112.85,21.9926,20.0001,NaN,NaN,NaN,NaN,""
2139.1,21.9816,20.0004,NaN,NaN,NaN,NaN,""
2178.65,21.9651,20,NaN,NaN,NaN,NaN,""
2197.64,22.0671,19.9999,NaN,NaN,NaN,NaN,""
2205.37,22.1211,19.9998,NaN,NaN,NaN,NaN,""
2213.1,22.1751,19.9998,NaN,NaN,NaN,NaN,""
2224.27,21.9939,19.9998,NaN,NaN,NaN,NaN,""
2234.82,22.0506,19.9998,NaN,NaN,NaN,NaN,""
2249.28,22.1615,19.9998,NaN,NaN,NaN,NaN,""
2288.82,22.0825,19.9999,NaN,NaN,NaN,NaN,""
2312.27,22.0775,20,NaN,NaN,NaN,NaN,""
2326.8,22.0846,20.0002,NaN,NaN,NaN,NaN,""
2380.65,22.0611,20.0005,NaN,NaN,NaN,NaN,""
2414.66,22.0462,19.9999,NaN,NaN,NaN,NaN,""
2446.26,22.0324,20.0002,NaN,NaN,NaN,NaN,""
2472.86,22.0491,20.0003,NaN,NaN,NaN,NaN,""
2504.41,22.0688,19.9999,NaN,NaN,NaN,NaN,""
2505.29,22.0694,19.9999,NaN,NaN,NaN,NaN,""
2525.31,22.0027,20,NaN,NaN,NaN,NaN,""
2542.07,22.1017,20.0001,NaN,NaN,NaN,NaN,""
2550.53,22.1364,20,NaN,NaN,NaN,NaN,""
2563.98,22.1909,19.9998,NaN,NaN,NaN,NaN,""
2575.71,22.1425,19.9997,NaN,NaN,NaN,NaN,""
2583.66,22.1114,19.9997,NaN,NaN,NaN,NaN,""
2605.1,22.0327,19.9999,NaN,NaN,NaN,NaN,""
2637.56,22.0271,20.0001,NaN,NaN,NaN,NaN,""
2662.51,22.0284,19.9999,NaN,NaN,NaN,NaN,""
2692.5,22.0457,19.9997,NaN,NaN,NaN,NaN,""
2717.9,22.0486,19.9998,NaN,NaN,NaN,NaN,""
2751.4,22.0353,19.9999,NaN,NaN,NaN,NaN,""
2766.54,22.0501,19.9998,NaN,NaN,NaN,NaN,""
2781.68,22.0649,19.9997,NaN,NaN,NaN,NaN,""
2797.2,22.0196,19.9996,NaN,NaN,NaN,NaN,""
2816.18,22.0133,19.9995,NaN,NaN,NaN,NaN,""
2835.16,22.0071,19.9996,NaN,NaN,NaN,NaN,""
2857.2,22.0642,19.9997,NaN,NaN,NaN,NaN,""
2870.41,21.9135,19.9998,NaN,NaN,NaN,NaN,""
2891.12,22.0743,19.9999,NaN,NaN,NaN,NaN,""
2911.38,22.1214,20,NaN,NaN,NaN,NaN,""
2927.42,22.1269,19.9999,NaN,NaN,NaN,NaN,""
2935.54,22.0847,19.9998,NaN,NaN,NaN,NaN,""
2961.97,22.1183,19.9996,NaN,NaN,NaN,NaN,""
2978.83,22.0868,19.9995,NaN,NaN,NaN,NaN,""
2995.7,22.0553,19.9997,NaN,NaN,NaN,NaN,""
3021.08,22.0809,20,NaN,NaN,NaN,NaN,""
3038.28,22.0828,20,NaN,NaN,NaN,NaN,""
3085.71,22.0416,19.9999,NaN,NaN,NaN,NaN,""
3110.56,22.0417,19.9998,NaN,NaN,NaN,NaN,""
3135.41,22.0418,19.9999,NaN,NaN,NaN,NaN,""
3165.35,21.9553,20,NaN,NaN,NaN,NaN,""
3181.23,22.02,20,NaN,NaN,NaN,NaN,""
3224.13,22.0116,20.0001,NaN,NaN,NaN,NaN,""
3238.76,22.0089,19.9998,NaN,NaN,NaN,NaN,""
3253.38,22.0146,19.9994,NaN,NaN,NaN,NaN,""
3299.12,22.0327,19.9999,NaN,NaN,NaN,NaN,""
3332.54,22.0458,20.0001,NaN,NaN,NaN,NaN,""
3343.1,21.9879,20.0001,NaN,NaN,NaN,NaN,""
3361.32,22.0054,20.0001,NaN,NaN,NaN,NaN,""
3372.8,22.0163,19.9997,NaN,NaN,NaN,NaN,""
3387.68,22.0216,19.9998,NaN,NaN,NaN,NaN,""
3402.57,22.0195,20,NaN,NaN,NaN,NaN,""
3423.13,22.0183,19.9999,NaN,NaN,NaN,NaN,""
3454.79,22.036,19.9998,NaN,NaN,NaN,NaN,""
3480.6,22.0504,19.9993,NaN,NaN,NaN,NaN,""
3497.24,22.0409,19.9995,NaN,NaN,NaN,NaN,""
3513.88,22.0194,19.9997,NaN,NaN,NaN,NaN,""
3537.84,21.9999,19.9997,NaN,NaN,NaN,NaN,""
3581.87,22.124,19.9997,NaN,NaN,NaN,NaN,""
3603.73,22.1612,19.9999,NaN,NaN,NaN,NaN,""
3624.9,22.1921,20.0001,NaN,NaN,NaN,NaN,""
3646.76,22.1681,19.9999,NaN,NaN,NaN,NaN,""
3662.53,22.1508,19.9998,NaN,NaN,NaN,NaN,""
3692.12,22.1103,19.9999,NaN,NaN,NaN,NaN,""
3721.81,22.0484,20,NaN,NaN,NaN,NaN,""
3749.65,22.0781,20,NaN,NaN,NaN,NaN,""
3776.35,22.0978,20,NaN,NaN,NaN,NaN,""
3783.73,22.0499,20,NaN,NaN,NaN,NaN,""
3869.45,22.038,19.9998,NaN,NaN,NaN,NaN,""
3939.71,22.0241,20,NaN,NaN,NaN,NaN,""
3986.1,22.0052,20.0001,NaN,NaN,NaN,NaN,""
3990.41,22.0933,20.0001,NaN,NaN,NaN,NaN,""
4025.77,22.0719,20.0002,NaN,NaN,NaN,NaN,""
4048.71,22.0678,20,NaN,NaN,NaN,NaN,""
4082.63,22.0741,19.9996,NaN,NaN,NaN,NaN,""
4121.97,22.114,19.9997,NaN,NaN,NaN,NaN,""
4127.64,22.1321,19.9997,NaN,NaN,NaN,NaN,""
4162.94,22.0551,19.9999,NaN,NaN,NaN,NaN,""
4203.65,22.0856,20,NaN,NaN,NaN,NaN,""
4244.36,22.1161,20.0002,NaN,NaN,NaN,NaN,""
4252.63,22.0633,20.0002,NaN,NaN,NaN,NaN,""
4261.32,22.0665,20.0003,NaN,NaN,NaN,NaN,""
4279.1,22.0729,19.9999,NaN,NaN,NaN,NaN,""
4357.08,22.1009,19.9998,NaN,NaN,NaN,NaN,""
4394.88,22.1719,19.9998,NaN,NaN,NaN,NaN,""
4406.74,21.9535,19.9998,NaN,NaN,NaN,NaN,""
4423.68,22.0569,19.9998,NaN,NaN,NaN,NaN,""
4439.98,22.1524,19.9998,NaN,NaN,NaN,NaN,""
4511.89,22.1391,20,NaN,NaN,NaN,NaN,""
4564.41,22.1138,19.9999,NaN,NaN,NaN,NaN,""
4616.92,22.0884,19.9997,NaN,NaN,NaN,NaN,""
4626.92,22.0873,19.9997,NaN,NaN,NaN,NaN,""
4658.37,22.0839,20.0001,NaN,NaN,NaN,NaN,""
4679.76,22.0815,19.9997,NaN,NaN,NaN,NaN,""
4689.07,22.0805,19.9997,NaN,NaN,NaN,NaN,""
4709.1,22.1684,19.9998,NaN,NaN,NaN,NaN,""
4731.63,22.0687,19.9998,NaN,NaN,NaN,NaN,"Reaction start. Measuring position. Signal correct"
4731.77,22.068,19.9998,0.000238833,3.47717e-05,5.45156e-05,7.93693e-06,""
5037.77,22.1632,19.9999,0.00595282,0.101854,0.00135878,0.0232491,""
5071.27,22.1649,19.9999,0.137112,2.31524,0.031297,0.528474,""
5106.27,22.1582,19.9999,0.244753,9.21913,0.055867,2.10434,""
5142.27,22.1827,20,0.287772,18.9633,0.0656863,4.32854,""
5196.02,22.1173,19.9999,0.287644,34.6381,0.0656572,7.90644,""
5291.77,22.1105,19.9999,0.235297,59.8456,0.0537086,13.6603,""
5396.33,22.0978,19.9999,0.175975,81.2571,0.0401679,18.5476,""
5515.02,22.0453,19.9999,0.123936,98.8897,0.0282894,22.5724,""
5635.43,22.1898,20,0.0866283,111.428,0.0197736,25.4344,""
5789.32,22.1242,20,0.0552993,122.156,0.0126225,27.883,""
5961.43,22.0709,19.9997,0.0342894,129.704,0.00782684,29.606,""
6138.35,22.1632,20,0.0217875,134.563,0.00497318,30.7152,""
6316.18,22.1371,20.0001,0.0145197,137.733,0.00331425,31.4388,""
6562.71,22.1335,20,0.00912609,140.569,0.00208311,32.086,""
6859.7,22.1154,19.9998,0.00608104,142.768,0.00138805,32.5879,""
7220.44,22.1105,19.9997,0.00444481,144.626,0.00101456,33.0122,""
7755.37,22.1114,19.9998,0.00340751,146.687,0.000777793,33.4826,""
8146.72,22.0924,19.9998,0.00300596,147.937,0.000686136,33.7677,""
8449.47,22.1403,19.9999,0.00278172,148.811,0.000634951,33.9675,""
8822.65,22.1336,19.9994,0.0025674,149.807,0.000586031,34.1947,""
9252.17,22.1507,19.9999,0.002384,150.869,0.000544168,34.437,""
9773.8,22.1604,20.0004,0.00227424,152.077,0.000519114,34.7128,""
10174,22.1763,19.9998,0.00227446,152.986,0.000519165,34.9203,""
10640.5,22.1483,19.9998,0.00229383,154.051,0.000523586,35.1635,""
11184.4,22.1222,19.9997,0.00230293,155.301,0.000525664,35.4488,""
11590.1,22.2636,19.9996,0.00230919,156.237,0.000527092,35.6623,""
12392.2,22.1895,19.9997,0.00233477,158.097,0.000532932,36.087,""
12847,22.1526,19.9997,0.00236105,159.164,0.00053893,36.3306,""
13376.4,22.1209,19.9997,0.00240264,160.424,0.000548423,36.6182,""
13897.4,22.0771,19.9997,0.00245768,161.69,0.000560985,36.9071,""
14340.9,22.0656,19.9997,0.00251381,162.791,0.000573798,37.1585,""
14891,22.0996,19.9996,0.00259355,164.195,0.000591998,37.479,""
15402.2,22.0802,19.9999,0.00268115,165.545,0.000611994,37.7869,""
15980.1,22.0632,20,0.00279122,167.125,0.000637119,38.1476,""
16502.4,22.0169,19.9999,0.00290718,168.612,0.000663589,38.4872,""
16928.4,22.0328,20,0.00301261,169.872,0.000687653,38.7747,""
17333.1,22.0204,20.0001,0.00313261,171.115,0.000715044,39.0585,""
17799.6,22.0049,19.9999,0.00329477,172.617,0.000752059,39.4012,""
18307.6,21.9654,19.9998,0.00349645,174.339,0.000798095,39.7944,""
18690.5,21.9981,19.9999,0.00365562,175.706,0.000834427,40.1064,""
19306.8,21.9547,19.9996,0.00391947,178.041,0.000894652,40.6394,""
19799.1,21.9821,19.9996,0.0041294,180.023,0.00094257,41.0918,""
20383.1,21.9831,20.0002,0.00438447,182.508,0.00100079,41.659,""
20758.4,21.9809,19.9994,0.00455246,184.185,0.00103914,42.0417,""
21281.6,21.9319,19.9997,0.00479819,186.63,0.00109523,42.5998,""
21743.3,21.9482,19.9998,0.00502271,188.897,0.00114648,43.1173,""
22189.4,21.9527,19.9996,0.00525467,191.188,0.00119942,43.6402,""
22753.8,21.9507,19.9991,0.00555917,194.239,0.00126893,44.3367,""
23367.1,21.9525,19.9998,0.00591041,197.754,0.0013491,45.1391,""
23854.8,21.9501,20.0002,0.00620172,200.707,0.00141559,45.8132,""
24327.2,21.9244,19.9999,0.00649703,203.706,0.001483,46.4977,""
24736.3,21.9506,20.0001,0.00675857,206.418,0.0015427,47.1166,""
25221.8,21.9434,19.9999,0.00708049,209.776,0.00161618,47.8832,""
25799.2,21.9503,19.9999,0.00747434,213.978,0.00170608,48.8422,""
26268.1,22.0102,19.9998,0.0078019,217.559,0.00178085,49.6596,""
26673.9,21.9642,20,0.00809074,220.784,0.00184678,50.3957,""
27165.1,21.9303,20.0001,0.00845029,224.846,0.00192885,51.323,""
27679.4,21.9535,19.9997,0.00883215,229.29,0.00201601,52.3373,""
28216.1,21.9785,19.9997,0.00924353,234.14,0.00210991,53.4444,""
28650.3,21.9535,19.9999,0.00958327,238.227,0.00218746,54.3773,""
29248.5,21.9684,19.9996,0.0100557,244.101,0.00229529,55.7182,""
29770.9,21.9737,19.9996,0.0104741,249.463,0.0023908,56.942,""
30246,21.9342,19.9999,0.0108514,254.53,0.00247693,58.0985,""
30662.2,21.9218,19.9995,0.0111835,259.114,0.00255272,59.145,""
31168.2,21.9553,20.0001,0.0115855,264.878,0.00264449,60.4607,""
31712.7,21.9256,20,0.0120267,271.303,0.00274519,61.9272,""
32364.1,21.9051,19.9999,0.0127488,279.351,0.00291003,63.7642,""
33011.9,21.9296,19.9998,0.0135778,287.887,0.00309925,65.7126,""
33541.4,21.9425,19.9998,0.0141675,295.234,0.00323385,67.3896,""
34013.6,21.9083,19.9996,0.0146728,302.047,0.00334919,68.9448,""
34599.5,21.9419,20,0.0153,310.822,0.00349236,70.9478,""
35110.4,21.9471,19.9999,0.0158174,318.774,0.00361045,72.7629,""
35419.7,21.8847,19.9995,0.0161174,323.712,0.00367894,73.8901,""
35930,21.857,19.9999,0.0165848,332.061,0.00378561,75.7957,""
36413.8,21.9174,19.9998,0.0170021,340.183,0.00388088,77.6497,""
36881.3,21.9317,20.0006,0.0173874,348.223,0.00396881,79.4848,""
37321.4,21.882,19.9995,0.0177319,355.951,0.00404746,81.2489,""
37896.6,21.8805,19.9997,0.0181663,366.278,0.00414662,83.6061,""
38701.3,21.8968,19.9998,0.0187538,381.131,0.00428072,86.9963,""
39272.1,21.91,19.9999,0.0191587,391.957,0.00437312,89.4675,""
39918.7,21.918,19.9999,0.0196058,404.486,0.0044752,92.3274,""
40329.5,21.8779,19.9998,0.0198801,412.595,0.0045378,94.1783,""
40852.6,21.8825,19.9996,0.0202247,423.086,0.00461646,96.5729,""
41301.5,21.8971,19.9997,0.0205186,432.229,0.00468354,98.66,""
41712.2,21.9282,19.9997,0.0207925,440.714,0.00474605,100.597,""
42285.4,21.8743,19.9994,0.0212002,452.746,0.00483912,103.343,""
42843.3,21.8937,20,0.0216443,464.694,0.00494049,106.07,""
43244.4,21.8206,19.9994,0.0220158,473.448,0.0050253,108.069,""
43826.7,21.8708,19.9999,0.0226775,486.454,0.00517632,111.037,""
44376.9,21.8848,19.9996,0.0235161,499.15,0.00536774,113.935,""
44849.7,21.8423,20,0.0244827,510.485,0.00558838,116.523,""
45265.2,21.8497,19.9996,0.0255852,520.877,0.00584004,118.895,""
45651.2,21.8611,19.9997,0.0268375,530.992,0.00612589,121.203,""
45969.8,21.8596,19.9999,0.0280003,539.726,0.0063913,123.197,""
46380.6,21.8435,19.9998,0.0295247,551.541,0.00673926,125.894,""
46784.8,21.8475,19.9998,0.0307219,563.734,0.00701254,128.677,""
47086.4,21.8636,20.0002,0.0311206,573.073,0.00710354,130.809,""
47527.2,21.8743,19.9997,0.0307565,586.751,0.00702043,133.931,""
48082.4,21.8233,20.0001,0.0292677,603.44,0.00668059,137.74,""
48622.1,21.8756,19.9998,0.0278825,618.841,0.00636442,141.256,""
49086.8,21.8518,19.9999,0.0269464,631.574,0.00615075,144.162,""
49545,21.8253,19.9998,0.026069,643.721,0.00595048,146.935,""
50034.3,21.8164,19.9999,0.0251575,656.25,0.0057424,149.795,""
50587.1,21.8215,19.9997,0.0242522,669.899,0.00553577,152.91,""
51097.8,21.8129,19.9993,0.023602,682.112,0.00538736,155.698,""
51595.5,21.8418,20.0001,0.0231127,693.733,0.00527567,158.35,""
51997.4,21.8278,20,0.0227794,702.953,0.00519959,160.455,""
52601,21.8235,19.9998,0.022291,716.555,0.00508811,163.56,""
53068.9,21.8069,19.9997,0.0218765,726.889,0.0049935,165.918,""
53574.4,21.7537,20,0.0213868,737.826,0.00488171,168.415,""
54102.7,21.7925,19.9996,0.0207978,748.974,0.00474727,170.96,""
54676.4,21.7525,19.9997,0.0200736,760.701,0.00458197,173.636,""
55156.6,21.7906,19.9999,0.0194119,770.184,0.00443093,175.801,""
55600.6,21.7771,20.0001,0.0187722,778.662,0.00428491,177.736,""
56011,21.7864,19.9997,0.0181657,786.24,0.00414648,179.466,""
56516.4,21.79,19.9997,0.0174125,795.231,0.00397454,181.518,""
57014,21.7779,19.9994,0.0166718,803.707,0.00380547,183.453,""
57557.4,21.8071,19.9996,0.0158865,812.546,0.00362622,185.471,""
58072.9,21.7382,20.0001,0.0151689,820.559,0.00346244,187.299,""
58479.3,21.7649,19.9998,0.0146248,826.607,0.00333823,188.68,""
58924.8,21.7802,19.9997,0.0140553,832.999,0.00320824,190.139,""
59473.3,21.7835,19.9999,0.0133919,840.525,0.00305682,191.857,""
59990.9,21.7506,20.0002,0.0128048,847.301,0.00292281,193.404,""
60602.8,21.7548,19.9998,0.0121613,854.939,0.00277592,195.147,""
61148.9,21.7041,19.9994,0.0116263,861.432,0.0026538,196.629,""
61792.3,21.7175,19.9998,0.0110445,868.722,0.00252101,198.293,""
62421.4,21.7623,19.9998,0.0105236,875.505,0.00240211,199.841,""
63019.1,21.8839,19.9998,0.0100685,881.656,0.00229823,201.245,""
63463,21.8184,20.0003,0.00975226,886.052,0.00222604,202.249,""
63935.2,21.815,19.9996,0.00943433,890.583,0.00215346,203.283,""
64561.8,21.8412,20.0001,0.00904335,896.371,0.00206422,204.604,""
65014.6,21.8638,19.9997,0.00877877,900.406,0.00200383,205.525,""
65539.6,21.8717,19.9998,0.00849221,904.938,0.00193842,206.56,""
65918.1,21.8489,20.0004,0.00829834,908.115,0.00189416,207.285,""
66421.3,21.8514,19.9994,0.00805278,912.228,0.00183811,208.224,""
66892.8,21.8531,20.0001,0.00783675,915.974,0.0017888,209.079,""
67296.8,21.8746,20.0003,0.00766333,919.105,0.00174922,209.794,""
67872.5,21.889,19.999,0.00742084,923.448,0.00169387,210.785,""
68656.7,21.8891,20.0004,0.00713613,929.153,0.00162888,212.087,""
69269.8,21.894,20,0.00692759,933.464,0.00158128,213.071,""
69868.4,21.8932,19.9997,0.0067395,937.555,0.00153835,214.005,""
70373.2,21.9046,19.9998,0.00659557,940.919,0.00150549,214.773,""
70918.6,21.8888,19.9992,0.00644901,944.476,0.00147204,215.584,""
71469.2,21.9,19.9997,0.00631064,947.988,0.00144046,216.386,""
72042.5,21.9391,20,0.00618147,951.567,0.00141097,217.203,""
72618.4,21.9775,19.9996,0.00604651,955.087,0.00138017,218.007,""
73305.8,21.9571,19.9996,0.00590446,959.194,0.00134774,218.944,""
73724.7,21.9921,19.9996,0.00583421,961.653,0.00133171,219.505,""
74299.1,21.9849,19.9997,0.00574024,964.978,0.00131026,220.264,""
74713.6,21.9766,19.9997,0.00562776,967.333,0.00128458,220.802,""
75307.7,21.9897,19.9999,0.00551669,970.642,0.00125923,221.557,""
75924,22.0134,20.0002,0.00541493,974.01,0.001236,222.326,""
76362.3,21.9655,19.9998,0.00535146,976.369,0.00122152,222.864,""
76998.7,21.9586,19.9998,0.00526959,979.748,0.00120283,223.636,""
77477.6,21.957,20,0.00521513,982.258,0.0011904,224.209,""
77989.3,21.9746,20,0.00515843,984.913,0.00117745,224.815,""
78529,21.9442,20.0001,0.00510566,987.683,0.00116541,225.447,""
79009.7,21.9718,20,0.00506051,990.126,0.0011551,226.005,""
79862.2,21.9725,20.0001,0.00499082,994.411,0.0011392,226.983,""
80521.4,21.9788,20.0003,0.00494175,997.684,0.001128,227.73,""
81096.2,22.0003,19.9997,0.00490137,1000.51,0.00111878,228.375,""
81749.3,21.9751,19.9997,0.00486314,1003.7,0.00111005,229.103,""
82423.1,22.0323,19.9997,0.00482624,1006.96,0.00110163,229.848,""
82928,22.0033,19.9998,0.00480427,1009.39,0.00109662,230.403,""
83665.2,21.9843,19.9997,0.00477507,1012.93,0.00108995,231.209,""
84202.2,21.9749,20.0007,0.00475558,1015.49,0.0010855,231.793,""
84797.7,21.9909,19.9998,0.00473853,1018.31,0.00108161,232.438,""
85333.4,21.9949,19.9988,0.00472271,1020.85,0.001078,233.017,""
85957.4,21.997,19.9999,0.00470942,1023.79,0.00107496,233.688,""
86748.4,21.9821,19.9998,0.00469531,1027.51,0.00107174,234.537,""
87271.3,22.0289,20.0001,0.00468918,1029.96,0.00107035,235.097,""
87921.3,22.0217,19.9997,0.00468448,1033.01,0.00106927,235.793,""
88510.7,22.0464,19.9998,0.00467974,1035.77,0.00106819,236.423,""
89023.5,22.0708,20.0001,0.00467949,1038.17,0.00106813,236.97,""
89426.4,22.0681,19.9996,0.00467951,1040.05,0.00106814,237.401,""
89865.1,22.0725,19.9999,0.00468028,1042.11,0.00106831,237.869,""
90334.6,22.0756,19.9998,0.00468013,1044.3,0.00106828,238.371,""
90918.5,22.0457,19.9999,0.00468579,1047.04,0.00106957,238.995,""
91425.4,22.0767,19.9998,0.0046901,1049.41,0.00107056,239.537,""
91926,22.0626,19.9997,0.00469622,1051.76,0.00107195,240.074,""
92482.2,22.0944,19.9998,0.00470108,1054.38,0.00107306,240.67,""
93237,22.1013,19.9999,0.00471148,1057.93,0.00107543,241.481,""
93610.1,22.0666,20.0001,0.00471806,1059.69,0.00107694,241.883,""
94245.1,22.0299,19.9998,0.00472718,1062.69,0.00107902,242.567,""
94562.7,22.0164,19.9998,0.00473494,1064.19,0.00108079,242.91,""
95079.6,22.0187,19.9996,0.00474301,1066.64,0.00108263,243.469,""
95666.3,22.008,20,0.00475505,1069.42,0.00108538,244.105,""
96184.3,22.0214,19.9999,0.00476223,1071.89,0.00108702,244.668,""
96759,21.9893,19.9995,0.00477417,1074.63,0.00108974,245.293,""
97190.2,21.9836,20.0001,0.00478286,1076.69,0.00109173,245.764,""
97669.2,21.9683,20.0001,0.00479239,1078.98,0.0010939,246.287,""
98161.4,21.9889,19.9995,0.00480242,1081.34,0.00109619,246.826,""
98617.6,21.9868,20.0001,0.00481145,1083.54,0.00109825,247.326,""
99187.2,21.9976,19.9997,0.00482068,1086.28,0.00110036,247.952,""
99747,21.9948,20,0.00483143,1088.98,0.00110281,248.569,""
100439,21.9827,19.9997,0.00484227,1092.33,0.00110529,249.333,""
101006,22,19.9996,0.00485048,1095.07,0.00110716,249.959,""
101559,21.9957,19.9998,0.0048588,1097.76,0.00110906,250.573,""
102177,22.0092,19.9998,0.00486946,1100.77,0.0011115,251.259,""
102817,22.026,19.9998,0.00487545,1103.88,0.00111286,251.97,""
103427,21.987,19.9998,0.00488033,1106.86,0.00111398,252.65,""
103829,21.995,19.9997,0.00488654,1108.82,0.00111539,253.098,""
104281,21.9582,19.9998,0.00488824,1111.03,0.00111578,253.602,""
104954,21.9282,19.9998,0.00489373,1114.32,0.00111703,254.353,""
105525,21.9287,19.9999,0.0048958,1117.12,0.00111751,254.991,""
106144,21.8984,19.9997,0.00489974,1120.15,0.00111841,255.683,""
106588,21.8511,20,0.00489964,1122.33,0.00111838,256.18,""
107172,21.8432,20.0001,0.00489976,1125.18,0.00111841,256.833,""
107789,21.8288,19.9993,0.00489833,1128.21,0.00111809,257.523,""
108388,21.8225,19.9999,0.00489663,1131.14,0.0011177,258.193,""
108756,21.8057,19.9997,0.00489561,1132.94,0.00111746,258.604,""
109272,21.805,19.9999,0.00489303,1135.47,0.00111688,259.18,""
109725,21.7968,19.9995,0.00489141,1137.68,0.00111651,259.686,""
110183,21.7982,19.9998,0.00488749,1139.92,0.00111561,260.197,""
110809,21.7699,19.9999,0.00488218,1142.98,0.0011144,260.895,""
111207,21.8086,19.9996,0.00487685,1144.93,0.00111318,261.339,""
111826,21.7835,19.9999,0.00486921,1147.94,0.00111144,262.027,""
112273,21.7989,19.9999,0.00486362,1150.11,0.00111016,262.523,""
112727,21.7789,19.9998,0.00485598,1152.32,0.00110842,263.027,""
113195,21.7733,19.9998,0.00485087,1154.59,0.00110725,263.546,""
113751,21.792,20.0001,0.00484207,1157.29,0.00110524,264.161,""
114211,21.7546,20.0002,0.0048343,1159.52,0.00110347,264.669,""
114746,21.7862,20,0.00482332,1162.1,0.00110096,265.258,""
115197,21.7616,19.9997,0.00481259,1164.27,0.00109852,265.754,""
115640,21.7566,20.0002,0.00480448,1166.4,0.00109666,266.241,""
116122,21.7586,20,0.00479337,1168.71,0.00109413,266.769,""
116583,21.7467,19.9997,0.00478312,1170.92,0.00109179,267.272,""
117117,21.7225,20.0003,0.00476915,1173.47,0.0010886,267.855,""
117658,21.7499,20.0001,0.00475656,1176.05,0.00108573,268.443,""
118198,21.7545,20,0.00474244,1178.61,0.0010825,269.029,""
118778,21.7428,20,0.00472866,1181.36,0.00107936,269.655,""
119353,21.7402,19.9998,0.00470969,1184.07,0.00107503,270.274,""
119898,21.7145,19.9997,0.00469462,1186.64,0.00107159,270.86,""
120375,21.712,19.9998,0.00467881,1188.87,0.00106798,271.369,""
120828,21.7058,19.9997,0.00466697,1190.99,0.00106527,271.853,""
121539,21.7085,19.9996,0.00464273,1194.3,0.00105974,272.608,""
122010,21.6967,19.9997,0.00462846,1196.48,0.00105649,273.106,""
122559,21.7159,20.0001,0.00461095,1199.01,0.00105249,273.685,""
123119,21.68,19.9992,0.00459002,1201.59,0.00104771,274.273,""
123634,21.6836,20.0003,0.00457297,1203.95,0.00104382,274.811,""
124321,21.697,19.9998,0.00454836,1207.08,0.0010382,275.527,""
124805,21.6906,19.9993,0.00452426,1209.28,0.0010327,276.028,""
125341,21.6887,20,0.00450766,1211.7,0.00102891,276.58,""
125797,21.6267,19.9997,0.00449354,1213.75,0.00102569,277.049,""
126426,21.6718,19.9999,0.0044671,1216.57,0.00101965,277.693,""
126906,21.6768,19.9993,0.00445005,1218.71,0.00101576,278.181,""
127505,21.6437,19.9999,0.00442819,1221.37,0.00101077,278.788,""
127919,21.6565,20.0003,0.00441132,1223.2,0.00100692,279.205,""
128337,21.6644,19.9996,0.00439446,1225.04,0.00100307,279.625,""
128984,21.6676,19.9998,0.00436647,1227.87,0.000996682,280.272,""
129456,21.665,20.0002,0.00434846,1229.93,0.000992573,280.742,""
129898,21.6831,20,0.00432974,1231.85,0.0009883,281.18,""
130410,21.6576,19.9996,0.00430981,1234.06,0.00098375,281.685,""
131023,21.648,20,0.00428265,1236.69,0.00097755,282.285,""
131642,21.6422,19.9999,0.00425587,1239.34,0.000971437,282.889,""
132060,21.6198,19.9997,0.0042395,1241.11,0.000967702,283.294,""
132605,21.6582,19.9998,0.00421763,1243.42,0.000962708,283.82,""
133189,21.6247,19.9997,0.00418884,1245.87,0.000956137,284.38,""
133891,21.6149,19.9999,0.00415925,1248.8,0.000949384,285.049,""
134351,21.6863,19.9996,0.00413934,1250.71,0.000944839,285.485,""
134824,21.5958,20,0.00411914,1252.66,0.000940228,285.931,""
135368,21.5997,19.9998,0.0040949,1254.9,0.000934696,286.44,""
135981,21.6041,19.9996,0.00406801,1257.4,0.000928558,287.012,""
136402,21.6242,19.9997,0.00404985,1259.11,0.000924411,287.402,""
136907,21.6116,19.9996,0.00402804,1261.15,0.000919435,287.867,""
137363,21.56,19.9997,0.00400753,1262.98,0.000914753,288.286,""
137873,21.6158,19.9999,0.00398558,1265.02,0.000909742,288.751,""
138599,21.5962,19.9997,0.00395316,1267.9,0.000902341,289.409,""
139200,21.5847,20.0002,0.00392618,1270.27,0.000896183,289.949,""
139755,21.5827,19.9999,0.00390257,1272.44,0.000890794,290.445,""
140179,21.5957,19.9998,0.00388396,1274.09,0.000886547,290.822,""
140664,21.583,19.9997,0.00386186,1275.97,0.000881502,291.25,""
141135,21.5955,19.9999,0.00384267,1277.78,0.000877121,291.664,""
141608,21.6,19.9996,0.00382042,1279.59,0.000872043,292.078,""
142126,21.5742,19.9999,0.00379823,1281.57,0.000866979,292.528,""
142654,21.5936,19.9998,0.00377395,1283.57,0.000861435,292.985,""
143174,21.5424,19.9998,0.00375262,1285.52,0.000856567,293.431,""
143762,21.5616,19.9999,0.00372784,1287.72,0.000850911,293.934,""
144259,21.5719,19.9997,0.00370501,1289.57,0.0008457,294.355,""
144693,21.5836,19.9997,0.00368683,1291.17,0.00084155,294.721,""
145214,21.5218,20,0.00366552,1293.09,0.000836685,295.159,""
145886,21.5623,19.9999,0.00363712,1295.54,0.000830203,295.719,""
146328,21.5648,20.0001,0.00361732,1297.15,0.000825683,296.085,""
146713,21.5608,19.9999,0.00359977,1298.54,0.000821678,296.402,""
147382,21.5371,19.9998,0.00357186,1300.93,0.000815307,296.949,""
147849,21.5277,19.9996,0.0035516,1302.6,0.000810683,297.329,""
148415,21.5348,19.9999,0.00352797,1304.6,0.000805289,297.786,""
148847,21.5719,19.9996,0.00351003,1306.12,0.000801194,298.134,""
149268,21.532,19.9999,0.00349253,1307.6,0.000797198,298.47,""
149730,21.5598,19.9999,0.00347472,1309.21,0.000793133,298.837,""
150288,21.5568,19.9997,0.00345052,1311.14,0.000787609,299.278,""
150641,21.5668,19.9998,0.00343522,1312.35,0.000784118,299.556,""
151126,21.5619,20.0002,0.00341762,1314.02,0.0007801,299.935,""
151571,21.5458,20.0001,0.00339858,1315.53,0.000775755,300.282,""
152042,21.5581,20.0002,0.00337936,1317.13,0.000771367,300.646,""
152543,21.5581,20,0.0033592,1318.82,0.000766765,301.031,""
153049,21.5562,19.9998,0.00334042,1320.51,0.000762478,301.418,""
153458,21.539,20,0.00332516,1321.88,0.000758996,301.729,""
153878,21.5486,20,0.003308,1323.27,0.000755079,302.047,""
154528,21.6426,19.9999,0.00328083,1325.41,0.000748877,302.536,""
154972,21.5805,19.9995,0.00326427,1326.86,0.000745096,302.868,""
155372,21.5809,19.9998,0.00324787,1328.17,0.000741353,303.165,""
155950,21.5815,19.9995,0.00322753,1330.04,0.000736711,303.592,""
156446,21.572,20,0.00320953,1331.63,0.000732602,303.956,""
156862,21.5912,20.0001,0.00319247,1332.97,0.000728707,304.26,""
157508,21.7405,20.0003,0.00316849,1335.02,0.000723235,304.729,""
158041,21.8649,20,0.0031495,1336.7,0.0007189,305.114,""
158297,21.8328,20.0001,0.00313727,1337.51,0.000716108,305.297,""
158727,21.771,19.9996,0.00312175,1338.85,0.000712566,305.604,""
159130,21.8066,19.9999,0.00310967,1340.11,0.000709807,305.891,""
159493,21.7707,19.9994,0.0030947,1341.23,0.00070639,306.148,""
159904,21.8184,19.9998,0.00308184,1342.5,0.000703455,306.438,""
160480,21.7882,19.9997,0.00305968,1344.27,0.000698397,306.841,""
161004,21.7976,19.9999,0.0030416,1345.87,0.00069427,307.206,""
161450,21.8865,19.9999,0.00302674,1347.22,0.000690879,307.515,""
162047,21.8474,20.0003,0.00300465,1349.02,0.000685837,307.926,""
162604,21.8653,20.0003,0.00298454,1350.69,0.000681247,308.307,""
163116,21.863,19.9996,0.0029671,1352.21,0.000677266,308.654,""
163560,21.8595,19.9999,0.00295136,1353.53,0.000673672,308.954,""
164121,21.8211,19.9997,0.00293243,1355.18,0.000669352,309.331,""
164758,21.8534,19.9998,0.00291101,1357.04,0.000664462,309.756,""
165371,21.8665,19.9998,0.00289158,1358.82,0.000660027,310.162,""
165903,21.8826,20,0.00287287,1360.35,0.000655756,310.511,""
166381,21.941,20.0001,0.00285719,1361.72,0.000652178,310.825,""
166747,21.9584,19.9998,0.00284571,1362.76,0.000649556,311.062,""
167220,21.9331,19.9999,0.00283111,1364.11,0.000646224,311.369,""
167673,21.9468,20.0003,0.00281698,1365.39,0.000643,311.661,""
168069,22.0011,20,0.00280279,1366.5,0.000639761,311.915,""
168573,21.9759,19.9998,0.00278762,1367.91,0.000636299,312.236,""
169059,21.9614,20,0.00277255,1369.26,0.000632858,312.545,""
169675,21.9599,20,0.00275259,1370.96,0.000628301,312.933,""
170134,21.9454,20,0.00273724,1372.22,0.000624797,313.221,""
170498,22.1268,20,0.00272668,1373.22,0.000622388,313.448,""
170932,22.1547,20.0001,0.00271404,1374.4,0.000619503,313.717,""
171526,22.0355,19.9996,0.00269727,1376,0.000615674,314.084,""
171908,22.0324,19.9998,0.00268435,1377.03,0.000612725,314.319,""
172452,22.091,19.9999,0.00266781,1378.49,0.000608951,314.651,""
172805,21.9781,19.9996,0.0026584,1379.43,0.000606802,314.866,""
173275,22.0283,19.9999,0.00264467,1380.67,0.000603667,315.15,""
173681,22.1063,20,0.00263218,1381.74,0.000600816,315.395,""
174184,22.0642,19.9997,0.0026181,1383.07,0.000597603,315.696,""
174628,22.0627,20,0.00260651,1384.23,0.000594958,315.961,""
175039,22.0752,19.9999,0.00259385,1385.29,0.000592069,316.205,""
175563,22.0498,19.9998,0.00257883,1386.65,0.000588639,316.514,""
175984,22.1205,20.0002,0.0025667,1387.73,0.000585871,316.762,""
176419,22.0618,19.9996,0.00255428,1388.85,0.000583036,317.016,""
176816,22.0217,19.9994,0.00254363,1389.86,0.000580606,317.247,""
177213,22.1222,19.9996,0.00253363,1390.86,0.000578322,317.477,""
177712,22.077,19.9998,0.00252166,1392.13,0.000575591,317.765,""
178110,22.2725,20,0.0025104,1393.13,0.000573019,317.993,""
178620,22.1594,20.0001,0.00249551,1394.4,0.00056962,318.285,""
179048,22.1504,19.9998,0.00248426,1395.47,0.000567054,318.528,""
179444,22.2026,20,0.00247413,1396.45,0.00056474,318.752,""
179917,22.1325,19.9994,0.00246198,1397.62,0.000561967,319.018,""
180462,22.1745,19.9994,0.00244799,1398.96,0.000558775,319.324,""
180884,22.3171,19.9998,0.00243777,1399.99,0.000556441,319.559,""
181228,22.1378,19.9997,0.00242917,1400.83,0.00055448,319.75,""
181716,22.1266,19.9998,0.00241575,1402.01,0.000551415,320.02,""
182273,22.1142,19.9998,0.00240269,1403.35,0.000548435,320.327,""
183087,22.1567,19.9996,0.00238305,1405.3,0.000543952,320.771,""
183571,22.1487,20.0001,0.00237027,1406.45,0.000541035,321.033,""
184071,22.0802,19.9997,0.00235818,1407.63,0.000538274,321.303,""
184689,22.0961,19.9998,0.00234405,1409.08,0.000535049,321.635,""
185155,22.0787,20,0.00233271,1410.17,0.00053246,321.884,""
185701,22.046,19.9996,0.00232038,1411.44,0.000529646,322.174,""
186329,22.0065,19.9997,0.00230539,1412.89,0.000526226,322.505,""
186723,22.0613,19.9999,0.00229595,1413.8,0.000524069,322.712,""
187249,21.9858,19.9995,0.00228296,1415,0.000521104,322.987,""
187665,21.9623,19.9997,0.00227635,1415.95,0.000519597,323.203,""
188187,21.9224,19.9998,0.00226207,1417.14,0.000516336,323.474,""
188727,21.8849,19.9994,0.00225125,1418.36,0.000513867,323.752,""
189233,21.9149,19.9999,0.00223991,1419.49,0.000511279,324.011,""
190048,21.8968,20,0.0022233,1421.31,0.000507486,324.426,""
190533,21.8876,20,0.0022125,1422.39,0.000505023,324.672,""
191014,21.8968,19.9997,0.00220077,1423.45,0.000502343,324.914,""
191510,21.8782,19.9999,0.00219125,1424.54,0.000500171,325.163,""
191941,21.8988,20.0005,0.00218284,1425.48,0.000498252,325.378,""
192579,21.883,20,0.00216772,1426.87,0.000494801,325.695,""
193129,21.8837,19.9998,0.00215813,1428.06,0.000492612,325.967,""
193545,21.8612,20.0001,0.00214886,1428.96,0.000490496,326.171,""
193982,21.832,19.9998,0.00214057,1429.89,0.000488602,326.385,""
[...]
232786,21.5232,19.9996,0.00156759,1500.7,0.000357815,342.548,""
233417,21.5356,19.9998,0.0015598,1501.69,0.000356038,342.773,""
234124,21.519,20,0.00155178,1502.79,0.000354206,343.024,""
234788,21.4986,20,0.00154638,1503.82,0.000352974,343.259,""
235303,21.5047,19.9997,0.00154029,1504.61,0.000351584,343.44,""
235744,21.5167,20,0.00153472,1505.29,0.000350312,343.595,""
236526,21.5074,19.9996,0.00152724,1506.49,0.000348606,343.868,""
237285,21.5395,19.9996,0.00152032,1507.64,0.000347026,344.132,""
237899,21.4679,20.0001,0.00151314,1508.57,0.000345386,344.345,""
238433,21.5239,19.9997,0.00150809,1509.38,0.000344235,344.529,""
239007,21.5077,19.9998,0.00150217,1510.24,0.000342883,344.726,""
239385,21.5104,20.0002,0.00149756,1510.81,0.00034183,344.856,""
239833,21.4959,20,0.00149389,1511.48,0.000340993,345.009,""
240743,21.5032,19.9999,0.0014851,1512.84,0.000338986,345.318,""
241662,21.4669,19.9997,0.00147421,1514.2,0.000336501,345.628,""
242258,21.4865,19.9999,0.001469,1515.08,0.000335312,345.829,""
242872,21.4757,19.9997,0.00146283,1515.98,0.000333903,346.034,""
243467,21.5066,19.9999,0.0014598,1516.85,0.000333212,346.233,""
243985,21.4656,19.9998,0.0014548,1517.6,0.00033207,346.405,""
244727,21.4736,19.9997,0.00144645,1518.68,0.000330164,346.651,""
245362,21.4668,19.9997,0.00144125,1519.59,0.000328977,346.86,""
246138,21.4663,19.9998,0.00143342,1520.71,0.000327191,347.114,""
246693,21.4631,19.9995,0.00142838,1521.5,0.00032604,347.295,""
247201,21.4556,19.9999,0.0014237,1522.23,0.000324971,347.461,""
247893,21.476,19.9996,0.00141724,1523.21,0.000323498,347.685,""
248498,21.4621,19.9998,0.0014125,1524.07,0.000322414,347.881,""
249063,21.4679,19.9999,0.00140797,1524.86,0.000321381,348.063,""
249886,21.5029,20,0.00139972,1526.02,0.000319499,348.327,""
250591,21.5368,20,0.00139481,1527,0.000318377,348.551,""
251243,21.5815,20.0002,0.00139128,1527.91,0.000317571,348.759,""
251894,21.5804,19.9998,0.00138427,1528.81,0.000315972,348.965,""
252389,21.6327,20,0.00137869,1529.5,0.000314698,349.121,""
252996,21.6192,20.0001,0.00137362,1530.33,0.000313541,349.312,""
253574,21.5955,19.9999,0.00136865,1531.13,0.000312407,349.493,""
253963,21.6733,20.0001,0.00136681,1531.66,0.000311985,349.614,""
254447,21.654,19.9997,0.00136223,1532.32,0.000310939,349.765,""
255130,21.6566,20.0002,0.00135693,1533.25,0.000309731,349.977,""
255533,21.5541,19.9999,0.0013535,1533.79,0.000308948,350.101,""
256094,21.6914,19.9998,0.00134855,1534.55,0.000307818,350.274,""
256568,21.6739,19.9998,0.00134503,1535.19,0.000307015,350.42,""
257284,21.692,19.9999,0.00133876,1536.15,0.000305583,350.639,""
257983,21.6866,19.9998,0.0013341,1537.09,0.000304518,350.853,""
258441,21.6963,19.9999,0.00132898,1537.7,0.000303351,350.992,""
258965,21.5806,19.9999,0.00132586,1538.39,0.000302639,351.151,""
259678,21.6997,19.9996,0.00131995,1539.34,0.000301291,351.366,""
260211,21.6611,19.9999,0.00131584,1540.04,0.000300351,351.527,""
260813,21.6979,19.9998,0.00130864,1540.83,0.000298707,351.707,""
261332,21.663,19.9998,0.00130692,1541.51,0.000298316,351.862,""
261810,21.7103,19.9999,0.0013039,1542.13,0.000297626,352.004,""
262328,21.7352,19.9999,0.00129945,1542.8,0.00029661,352.158,""
262774,21.7462,20,0.00129569,1543.38,0.000295752,352.29,""
263209,21.6935,19.9997,0.00129349,1543.95,0.000295249,352.419,""
263875,21.6102,19.9998,0.0012895,1544.81,0.000294339,352.615,""
264607,21.6112,20.0001,0.00128205,1545.75,0.00029264,352.83,""
265092,21.5629,19.9996,0.00127851,1546.37,0.00029183,352.971,""
265648,21.6287,20,0.00127305,1547.08,0.000290585,353.133,""
266152,21.5771,19.9999,0.00127001,1547.72,0.000289891,353.279,""
266719,21.5539,19.9999,0.00126705,1548.44,0.000289214,353.444,""
267269,21.5493,19.9999,0.00126167,1549.13,0.000287987,353.602,""
267854,21.569,19.9999,0.00125812,1549.87,0.000287176,353.77,""
268524,21.5078,19.9999,0.00125103,1550.71,0.000285557,353.962,""
269110,21.4888,19.9998,0.00124732,1551.44,0.000284711,354.13,""
269686,21.4922,19.9998,0.00124413,1552.16,0.000283982,354.293,""
270526,21.4705,19.9994,0.00123746,1553.2,0.000282461,354.531,""
271150,21.4465,19.9998,0.00123337,1553.97,0.000281527,354.707,""
271784,21.4422,20.0002,0.00123006,1554.75,0.000280771,354.886,""
272358,21.4501,20.0003,0.00122554,1555.46,0.000279741,355.047,""
273039,21.4476,19.9997,0.00122143,1556.29,0.000278801,355.237,""
273547,21.4422,19.9999,0.00121773,1556.91,0.000277957,355.378,""
274282,21.4444,20,0.00121306,1557.81,0.000276892,355.582,""
274935,21.4322,19.9996,0.00120787,1558.59,0.000275707,355.762,""
275401,21.4192,19.9993,0.0012026,1559.16,0.000274504,355.891,""
275834,21.4406,20.0008,0.00120086,1559.68,0.000274106,356.01,""
276379,21.4358,20,0.00119974,1560.33,0.000273851,356.159,""
276859,21.4416,19.9997,0.00119503,1560.91,0.000272775,356.29,""
277368,21.4337,19.9997,0.0011911,1561.51,0.000271877,356.429,""
278026,21.4235,19.9999,0.00118756,1562.3,0.00027107,356.607,""
278546,21.4105,19.9999,0.0011833,1562.91,0.000270099,356.748,""
279318,21.441,19.9999,0.00118021,1563.83,0.000269393,356.957,""
280074,21.4274,19.9997,0.00117456,1564.72,0.000268103,357.16,""
280890,21.4302,19.9999,0.00116953,1565.67,0.000266954,357.378,""
281443,21.4015,19.9996,0.00116658,1566.32,0.000266283,357.525,""
282232,21.4353,19.9999,0.00116124,1567.24,0.000265064,357.735,""
282951,21.4122,20.0003,0.00115714,1568.07,0.000264126,357.925,""
283662,21.3806,19.9999,0.00115243,1568.89,0.000263052,358.113,""
284313,21.4027,19.9999,0.00114809,1569.64,0.000262062,358.284,""
285010,21.4083,19.9989,0.00114492,1570.44,0.000261338,358.466,""
285496,21.3956,20.0001,0.00114151,1571,0.00026056,358.593,""
286163,21.39,20.0001,0.00113724,1571.76,0.000259586,358.766,""
286610,21.3888,20,0.00113387,1572.26,0.000258816,358.882,""
287468,21.3907,19.9997,0.00113112,1573.24,0.000258187,359.104,""
288175,21.4054,20.0001,0.00112495,1574.03,0.000256779,359.286,""
288961,21.4026,20,0.00112006,1574.92,0.000255664,359.488,""
289545,21.3914,19.9997,0.00111815,1575.57,0.000255226,359.637,""
290152,21.3923,20.0002,0.00111374,1576.25,0.00025422,359.792,""
290667,21.3866,19.9998,0.00111094,1576.82,0.000253581,359.922,""
291423,21.3857,19.9998,0.00110843,1577.66,0.000253007,360.114,""
292046,21.3957,19.9998,0.00110286,1578.35,0.000251737,360.271,""
292780,21.3904,19.9999,0.00109847,1579.15,0.000250735,360.455,""
293581,21.3866,20,0.00109539,1580.03,0.000250032,360.656,""
294018,21.3844,20,0.00109303,1580.51,0.000249494,360.765,""
294605,21.3722,19.9999,0.00108801,1581.15,0.000248348,360.911,""
295294,21.3732,19.9996,0.00108367,1581.9,0.000247356,361.082,""
295906,21.3736,19.9998,0.00108078,1582.56,0.000246698,361.233,""
296323,21.3913,20,0.00107793,1583.01,0.000246046,361.336,""
297018,21.3883,20,0.00107606,1583.76,0.00024562,361.507,""
297660,21.417,19.9999,0.00107063,1584.45,0.000244379,361.664,""
298222,21.3916,19.9999,0.00106684,1585.05,0.000243514,361.801,""
299009,21.3901,20,0.0010645,1585.89,0.000242982,361.992,""
299678,21.3863,19.9997,0.00106057,1586.6,0.000242084,362.155,""
300390,21.3852,20.0003,0.00105711,1587.35,0.000241294,362.327,""
300981,21.3748,19.9996,0.00105204,1587.98,0.000240136,362.469,""
301604,21.3658,19.9998,0.00105065,1588.63,0.000239819,362.618,""
302276,21.3811,19.9997,0.00104621,1589.33,0.000238806,362.779,""
302744,21.3979,19.9997,0.00104364,1589.82,0.000238219,362.891,""
303398,21.3591,19.9998,0.00104006,1590.51,0.000237402,363.046,""
304004,21.3577,20.0001,0.00103657,1591.13,0.000236607,363.19,""
304584,21.3622,19.9998,0.00103358,1591.74,0.000235923,363.327,""
305479,21.3417,20.0002,0.00102791,1592.66,0.00023463,363.537,""
305980,21.4037,19.9996,0.00102597,1593.17,0.000234187,363.655,""
306519,21.3488,20,0.00102329,1593.72,0.000233575,363.781,""
307291,21.3718,20,0.00102,1594.51,0.000232824,363.961,""
307719,21.376,19.9998,0.00101746,1594.95,0.000232245,364.06,""
308376,21.342,19.9999,0.0010124,1595.62,0.000231089,364.213,""
308937,21.3337,19.9998,0.00101058,1596.18,0.000230673,364.342,""
309642,21.3587,19.9999,0.00100807,1596.9,0.0002301,364.505,""
310345,21.3408,19.9999,0.00100277,1597.6,0.00022889,364.666,""
311167,21.3317,20.0004,0.00100001,1598.43,0.00022826,364.854,""
311979,21.3174,19.9998,0.000995877,1599.24,0.000227317,365.039,""
312637,21.3298,19.9998,0.000992767,1599.89,0.000226607,365.188,""
313141,21.3328,19.9998,0.000990808,1600.39,0.00022616,365.302,""
313773,21.3151,19.9999,0.000986338,1601.01,0.00022514,365.445,""
314334,21.3315,19.9997,0.000981965,1601.57,0.000224142,365.571,""
314756,21.3269,19.9997,0.000981959,1601.98,0.00022414,365.665,""
315349,21.2971,20.0003,0.000980213,1602.56,0.000223742,365.798,""
315931,21.3319,19.9998,0.000977139,1603.13,0.00022304,365.928,""
316442,21.3001,19.9999,0.000973416,1603.63,0.00022219,366.042,""
316953,21.3047,19.9998,0.000969885,1604.12,0.000221384,366.155,""
317437,21.3003,20,0.000969268,1604.6,0.000221243,366.262,""
317975,21.2907,20.0001,0.000967888,1605.12,0.000220929,366.381,""
318390,21.3251,19.9997,0.000964804,1605.52,0.000220225,366.473,""
318921,21.2859,19.9998,0.000962425,1606.03,0.000219682,366.589,""
319353,21.2984,19.9997,0.000960365,1606.44,0.000219211,366.684,""
319896,21.3089,20,0.000957866,1606.96,0.000218641,366.803,""
320531,21.2911,19.9997,0.000952548,1607.57,0.000217427,366.941,""
321038,21.2895,19.9998,0.000951824,1608.05,0.000217262,367.051,""
321468,21.2872,20,0.000949649,1608.46,0.000216765,367.145,""
322104,21.2904,20,0.000945228,1609.06,0.000215756,367.283,""
322603,21.2861,19.9997,0.000944143,1609.54,0.000215509,367.39,""
323062,21.2778,19.9998,0.00094266,1609.97,0.00021517,367.489,""
323676,21.2825,20,0.000939301,1610.55,0.000214403,367.621,""
324344,21.2796,19.9997,0.000935671,1611.17,0.000213575,367.764,""
324844,21.2808,19.9999,0.000934086,1611.64,0.000213213,367.871,""
325330,21.2565,20,0.000930916,1612.09,0.000212489,367.974,""
325754,21.261,19.9999,0.000931054,1612.49,0.000212521,368.064,""
326266,21.2838,19.9998,0.000928711,1612.97,0.000211986,368.173,""
326764,21.2578,20,0.000925207,1613.43,0.000211186,368.278,""
327326,21.2597,19.9999,0.000921955,1613.95,0.000210444,368.397,""
327962,21.2662,20.0005,0.000918989,1614.53,0.000209767,368.531,""
328452,21.2645,19.9997,0.000918923,1614.98,0.000209752,368.633,""
329091,21.2541,19.9999,0.000914906,1615.57,0.000208835,368.767,""
329635,21.2695,19.9999,0.000911754,1616.06,0.000208115,368.88,""
330202,21.2654,19.9998,0.000911459,1616.58,0.000208048,368.998,""
330879,21.285,19.9992,0.000907933,1617.2,0.000207243,369.139,""
331227,21.2588,20.0002,0.000905848,1617.51,0.000206767,369.211,""
331749,21.2628,19.9996,0.000902989,1617.98,0.000206115,369.318,""
332305,21.2785,20.0004,0.000902407,1618.49,0.000205982,369.433,""
332837,21.2598,19.9999,0.000899578,1618.96,0.000205336,369.542,""
333447,21.2841,19.9999,0.000896286,1619.51,0.000204585,369.667,""
333895,21.27,19.9999,0.000893147,1619.91,0.000203868,369.759,""
334516,21.2864,19.9997,0.000891428,1620.47,0.000203476,369.885,""
334887,21.291,19.9992,0.000890361,1620.8,0.000203232,369.961,""
335523,21.2917,19.9998,0.00088707,1621.36,0.000202481,370.09,""
336381,21.2887,19.9998,0.000884371,1622.12,0.000201865,370.263,""
336897,21.3191,19.9998,0.00088002,1622.58,0.000200872,370.367,""
337398,21.273,19.9998,0.000880231,1623.02,0.00020092,370.468,""
337975,21.3073,19.9998,0.000876455,1623.53,0.000200058,370.583,""
338359,21.3209,19.9998,0.000875013,1623.86,0.000199729,370.66,""
338815,21.29,19.9999,0.000875189,1624.26,0.000199769,370.751,""
339486,21.2872,19.9999,0.000872796,1624.85,0.000199223,370.885,""
340123,21.2862,19.9998,0.000868154,1625.4,0.000198164,371.011,""
340625,21.2838,19.9999,0.0008677,1625.84,0.00019806,371.111,""
341224,21.2865,20,0.000862403,1626.35,0.000196851,371.229,""
341887,21.2945,19.9999,0.000861355,1626.93,0.000196612,371.359,""
342368,21.2558,19.9998,0.000857704,1627.34,0.000195778,371.454,""
342897,21.2885,19.9999,0.000857908,1627.79,0.000195825,371.557,""
343403,21.2986,19.9998,0.000853736,1628.23,0.000194873,371.656,""
343939,21.3056,19.9998,0.000850848,1628.68,0.000194213,371.761,""
344506,21.2904,19.9993,0.000850348,1629.17,0.000194099,371.871,""
344987,21.3111,19.9998,0.00084943,1629.57,0.00019389,371.964,""
345455,21.2896,19.9998,0.000845897,1629.97,0.000193083,372.054,""
346050,21.3059,19.9997,0.000843633,1630.47,0.000192566,372.169,""
346622,21.2833,19.9997,0.000842493,1630.96,0.000192306,372.279,""
347098,21.3001,20.0002,0.000839696,1631.36,0.000191668,372.371,""
347744,21.2892,19.9996,0.000837056,1631.9,0.000191065,372.494,""
348329,21.296,20,0.000836711,1632.39,0.000190986,372.606,""
348773,21.2765,20.0002,0.000833182,1632.76,0.000190181,372.691,""
349407,21.3128,19.9998,0.000830343,1633.29,0.000189533,372.811,""
350026,21.2944,20,0.000828157,1633.8,0.000189034,372.928,""
350907,21.3123,20,0.000825092,1634.53,0.000188334,373.095,""
351582,21.2937,19.9998,0.000824255,1635.08,0.000188143,373.222,""
352107,21.2824,20,0.00082096,1635.52,0.000187391,373.32,""
352604,21.285,19.9996,0.000818036,1635.92,0.000186724,373.413,""
353190,21.2864,19.9996,0.000816257,1636.4,0.000186318,373.523,""
353898,21.2961,19.9998,0.000813891,1636.98,0.000185777,373.654,""
354358,21.3094,20.0002,0.000811838,1637.35,0.000185309,373.74,""
354862,21.3134,19.9996,0.000809456,1637.76,0.000184765,373.833,""
355272,21.3114,19.9998,0.000809983,1638.1,0.000184885,373.909,""
355802,21.317,20.0003,0.000806224,1638.52,0.000184027,374.007,""
356342,21.3119,19.9999,0.000804839,1638.96,0.000183711,374.106,""
356799,21.3473,20.0002,0.000803642,1639.33,0.000183438,374.19,""
357347,21.3091,19.9995,0.000801005,1639.77,0.000182836,374.291,""
358001,21.3145,19.9998,0.000799423,1640.29,0.000182475,374.41,""
358480,21.3147,19.9999,0.000797055,1640.67,0.000181935,374.497,""
358960,21.3239,19.9998,0.000795688,1641.06,0.000181622,374.585,""
359528,21.32,19.9998,0.000795108,1641.51,0.00018149,374.688,""
360093,21.3224,19.9998,0.00079386,1641.96,0.000181205,374.79,""
360580,21.3291,19.9998,0.000790775,1642.34,0.000180501,374.878,""
361389,21.3354,19.9998,0.00078914,1642.98,0.000180128,375.024,""
362010,21.3109,20.0001,0.000783901,1643.47,0.000178932,375.136,""
362544,21.3416,19.9994,0.000785557,1643.89,0.00017931,375.231,""
363271,21.3333,20,0.000781592,1644.46,0.000178405,375.361,""
363927,21.3302,19.9995,0.000779538,1644.97,0.000177936,375.478,""
364452,21.2986,20.0003,0.000778798,1645.38,0.000177767,375.572,""
364883,21.3279,19.9998,0.000777933,1645.72,0.00017757,375.649,""
365345,21.3102,19.9999,0.000775861,1646.07,0.000177097,375.73,""
365830,21.3262,19.9992,0.000773623,1646.45,0.000176586,375.816,""
366798,21.3097,19.9999,0.000771603,1647.2,0.000176125,375.987,""
367418,21.3224,20,0.000767707,1647.68,0.000175236,376.096,""
367998,21.3078,20,0.000765539,1648.12,0.000174741,376.197,""
368487,21.3276,20.0002,0.000764566,1648.5,0.000174519,376.283,""
369071,21.318,20,0.000763402,1648.94,0.000174253,376.385,""
369526,21.3046,20.0001,0.000763185,1649.29,0.000174203,376.464,""
370082,21.3429,19.9998,0.000760219,1649.71,0.000173526,376.561,""
370817,21.2832,20,0.000758449,1650.27,0.000173122,376.688,""
371363,21.3297,20,0.000756288,1650.68,0.000172629,376.782,""
371899,21.3471,19.9999,0.000754401,1651.09,0.000172198,376.875,""
372467,21.3249,19.9995,0.000755709,1651.52,0.000172497,376.973,""
373003,21.3195,20,0.000752157,1651.92,0.000171686,377.065,""
373529,21.3066,20,0.000751307,1652.32,0.000171492,377.155,""
374136,21.3429,19.9998,0.000747281,1652.77,0.000170573,377.259,""
374838,21.2956,19.9998,0.000747083,1653.3,0.000170528,377.378,""
375275,21.31,19.9998,0.00074451,1653.62,0.000169941,377.453,""
375741,21.301,19.9995,0.000743068,1653.97,0.000169612,377.532,""
376322,21.3071,20.0001,0.000742299,1654.4,0.000169436,377.631,""
376814,21.2934,19.9999,0.000741298,1654.76,0.000169207,377.714,""
377383,21.2925,19.9999,0.000739371,1655.19,0.000168768,377.81,""
377904,21.2743,19.9996,0.000736763,1655.57,0.000168172,377.898,""
378360,21.3061,20,0.000735616,1655.91,0.00016791,377.975,""
378814,21.2928,19.9996,0.000733404,1656.24,0.000167406,378.051,""
379301,21.2648,19.9999,0.000734696,1656.6,0.0001677,378.132,""
380186,21.2986,19.9998,0.000731861,1657.25,0.000167053,378.28,""
380736,21.2821,20,0.000729775,1657.65,0.000166577,378.372,""
381321,21.2748,20.0005,0.000728279,1658.07,0.000166236,378.469,""
381849,21.2719,19.9997,0.000726009,1658.46,0.000165718,378.557,""
382431,21.2679,19.9998,0.00072438,1658.88,0.000165346,378.653,""
382990,21.2734,19.9997,0.00072221,1659.29,0.00016485,378.746,""
383467,21.2668,19.9997,0.00072223,1659.63,0.000164855,378.825,""
384317,21.267,19.9999,0.000720251,1660.24,0.000164403,378.965,""
384861,21.2677,19.9999,0.000718487,1660.64,0.000164001,379.054,""
385293,21.2617,19.9999,0.000716672,1660.95,0.000163586,379.125,""
385832,21.2667,19.9996,0.000716533,1661.33,0.000163555,379.213,""
386380,21.2562,19.9999,0.00071597,1661.73,0.000163426,379.303,""
386969,21.2815,19.9999,0.000713896,1662.15,0.000162953,379.399,""
387592,21.2632,19.9997,0.000712866,1662.59,0.000162718,379.5,""
388206,21.2938,20,0.000710501,1663.03,0.000162178,379.6,""
388733,21.2671,20,0.000710687,1663.4,0.00016222,379.686,""
389194,21.2649,19.9998,0.000709866,1663.73,0.000162033,379.76,""
389777,21.2552,19.9997,0.000706259,1664.14,0.00016121,379.854,""
390576,21.2439,19.9999,0.000704503,1664.71,0.000160809,379.983,""
391087,21.2241,19.9999,0.00070485,1665.07,0.000160888,380.066,""
391693,21.2528,20,0.000702239,1665.49,0.000160292,380.163,""
392213,21.2792,20,0.000700416,1665.86,0.000159876,380.246,""
392789,21.2482,19.9998,0.000699633,1666.26,0.000159697,380.338,""
393422,21.2458,19.9999,0.000699025,1666.7,0.000159558,380.439,""
394058,21.2602,19.9998,0.000697986,1667.15,0.000159321,380.541,""
394754,21.252,19.9997,0.000696802,1667.63,0.000159051,380.652,""
395423,21.2483,19.9999,0.000693478,1668.1,0.000158292,380.758,""
395976,21.2352,19.9998,0.000693983,1668.48,0.000158407,380.846,""
396459,21.2409,19.9998,0.000694358,1668.82,0.000158493,380.922,""
397008,21.2276,19.9999,0.000691209,1669.2,0.000157774,381.009,""
397561,21.2564,19.9997,0.000690584,1669.58,0.000157632,381.096,""
398295,21.2403,19.9998,0.000690087,1670.09,0.000157518,381.212,""
398856,21.2476,19.9996,0.000688174,1670.47,0.000157081,381.3,""
399388,21.223,19.9998,0.00068769,1670.84,0.000156971,381.384,""
399891,21.2498,20,0.000685927,1671.19,0.000156569,381.462,""
400749,21.2403,19.9999,0.000685435,1671.77,0.000156456,381.597,""
401153,21.2949,19.9999,0.000684354,1672.05,0.000156209,381.66,""
401735,21.242,20,0.000683725,1672.45,0.000156066,381.751,""
402228,21.256,19.9999,0.00068042,1672.79,0.000155312,381.828,""
402836,21.2604,19.9998,0.000680212,1673.2,0.000155264,381.922,""
403302,21.2831,19.9998,0.000679392,1673.52,0.000155077,381.994,""
403948,21.2455,20,0.000677552,1673.96,0.000154657,382.094,""
404469,21.2472,20,0.000676978,1674.31,0.000154526,382.175,""
404986,21.2365,20,0.00067613,1674.66,0.000154332,382.255,""
405633,21.2493,20,0.000675655,1675.1,0.000154224,382.355,""
406294,21.2691,19.9999,0.000674094,1675.54,0.000153868,382.456,""
406875,21.2632,19.9997,0.000673526,1675.93,0.000153738,382.546,""
407361,21.2702,19.9989,0.000671842,1676.26,0.000153354,382.62,""
407970,21.2572,20.0001,0.0006707,1676.67,0.000153093,382.714,""
408486,21.2502,19.9997,0.000670435,1677.02,0.000153032,382.793,""
409195,21.2929,19.9999,0.00066974,1677.49,0.000152874,382.901,""
409763,21.2669,20,0.000668825,1677.87,0.000152665,382.988,""
410206,21.2606,19.9998,0.000668257,1678.17,0.000152535,383.056,""
410745,21.2561,20,0.000667859,1678.53,0.000152445,383.138,""
411126,21.2746,19.9999,0.000667064,1678.78,0.000152263,383.196,""
411751,21.3967,20.0001,0.000664946,1679.2,0.000151779,383.291,""
412256,21.448,20,0.000664693,1679.53,0.000151722,383.367,""
412736,21.5062,20,0.000664428,1679.85,0.000151661,383.44,""
413097,21.5137,20.0002,0.000664357,1680.09,0.000151645,383.495,""
413097,21.5137,20.0002,NaN,NaN,NaN,NaN,"Ampoule removed"
413100,21.5133,20.0002,NaN,NaN,NaN,NaN,""