File: CaloCem/DATA/calorimetry_data_2.csv
"Time","Temperature","Heat flow","Heat","Normalized heat flow","Normalized heat","Time markers"
-1896.27,20,NaN,NaN,NaN,NaN,""
-1892.69,20,-4.39069e-06,NaN,-1.02443e-06,NaN,""
-1885.89,20,-4.16509e-06,NaN,-9.71789e-07,NaN,""
-1871.83,20,-4.42961e-06,NaN,-1.03351e-06,NaN,""
-1850.56,20,-3.77603e-06,NaN,-8.81015e-07,NaN,""
-1793.06,20,-3.57339e-06,NaN,-8.33735e-07,NaN,""
-1753.35,20,-2.6964e-06,NaN,-6.29118e-07,NaN,""
-1681.25,20,-2.52434e-06,NaN,-5.88974e-07,NaN,""
-1577.74,20,-2.74842e-06,NaN,-6.41254e-07,NaN,""
-1543.58,20,-2.29643e-06,NaN,-5.35797e-07,NaN,""
-1520.51,20,-2.68283e-06,NaN,-6.25951e-07,NaN,""
-1491.86,20,-2.39938e-06,NaN,-5.59819e-07,NaN,""
-1468.19,20,-2.34983e-06,NaN,-5.48256e-07,NaN,""
-1455.81,20,-2.0222e-06,NaN,-4.71816e-07,NaN,""
-1421.17,20,-1.87444e-06,NaN,-4.37341e-07,NaN,""
-1380.35,20,-1.22315e-06,NaN,-2.85383e-07,NaN,""
-1352.82,20,-1.95341e-06,NaN,-4.55765e-07,NaN,""
-1313.52,20,-9.20105e-07,NaN,-2.14677e-07,NaN,""
-1275.76,20,-1.50489e-06,NaN,-3.51119e-07,NaN,""
-1235.16,20,-3.52718e-07,NaN,-8.22953e-08,NaN,""
-1213.58,20,-1.09058e-06,NaN,-2.54452e-07,NaN,""
-1194.95,20,-1.03306e-06,NaN,-2.41032e-07,NaN,""
-1180.19,20,-1.22284e-06,NaN,-2.85311e-07,NaN,""
-1165.99,20,-8.75453e-07,NaN,-2.04259e-07,NaN,""
-1134.8,20,-1.07996e-06,NaN,-2.51975e-07,NaN,""
-1122.5,20,-1.26121e-06,NaN,-2.94264e-07,NaN,""
-1107.44,20,-8.03635e-07,NaN,-1.87502e-07,NaN,""
-1080.98,20,-7.79121e-07,NaN,-1.81783e-07,NaN,""
-1068.19,20,-3.0021e-07,NaN,-7.00444e-08,NaN,""
-1057.17,20,-3.89138e-07,NaN,-9.07928e-08,NaN,""
-1029.2,20,-8.61484e-08,NaN,-2.00999e-08,NaN,""
-1011.53,20,-1.95528e-07,NaN,-4.56201e-08,NaN,""
-994.994,20,1.49709e-07,NaN,3.49298e-08,NaN,""
-960.01,20,-1.41458e-07,NaN,-3.30047e-08,NaN,""
-900.414,20,5.81735e-07,NaN,1.35729e-07,NaN,""
-794.968,20,7.61997e-07,NaN,1.77787e-07,NaN,""
-766.093,20,4.29343e-07,NaN,1.00173e-07,NaN,""
-746.873,20,1.14112e-06,NaN,2.66244e-07,NaN,""
-680.719,20,1.5467e-06,NaN,3.60872e-07,NaN,""
-655.256,20,2.2973e-06,NaN,5.36002e-07,NaN,""
-636.599,20,2.68201e-06,NaN,6.2576e-07,NaN,""
-619.353,20,2.25194e-06,NaN,5.25417e-07,NaN,""
-610.689,20,2.48619e-06,NaN,5.80072e-07,NaN,""
-602.135,20,2.11836e-06,NaN,4.94251e-07,NaN,""
-547.489,20,1.96803e-06,NaN,4.59176e-07,NaN,""
-495.08,20,1.99304e-06,NaN,4.65012e-07,NaN,""
-479.049,20,1.66788e-06,NaN,3.89147e-07,NaN,""
-454.963,20,2.36175e-06,NaN,5.51039e-07,NaN,""
-427.574,20,2.01003e-06,NaN,4.68976e-07,NaN,""
-374.723,20,1.998e-06,NaN,4.66169e-07,NaN,""
-339.9,20,2.69322e-06,NaN,6.28376e-07,NaN,""
-315.121,20,2.54174e-06,NaN,5.93033e-07,NaN,""
-293.836,20,2.82217e-06,NaN,6.58462e-07,NaN,""
-258.336,20,2.8497e-06,NaN,6.64886e-07,NaN,""
-210.689,20,3.7543e-06,NaN,8.75944e-07,NaN,""
-190.032,20,3.58312e-06,NaN,8.36005e-07,NaN,""
-165.861,20,4.13285e-06,NaN,9.64268e-07,NaN,""
-144.217,20,3.72969e-06,NaN,8.70204e-07,NaN,""
-130.142,20,4.22236e-06,NaN,9.85151e-07,NaN,""
-114.099,20,4.00004e-06,NaN,9.33281e-07,NaN,""
-96.6892,20,4.47698e-06,NaN,1.04456e-06,NaN,""
16335.2,20,NaN,NaN,NaN,NaN,"Reaction start. Measuring position. Signal correct"
16335.3,20,0.000284524,2.12585e-05,6.63846e-05,4.95999e-06,""
16665.4,20,0.000442036,0.120599,0.000103135,0.0281378,""
16837.8,20,0.00561645,0.209136,0.00131042,0.0487952,""
16849.3,20,0.0623865,0.532456,0.0145559,0.124232,""
16861.3,20,0.153115,1.82514,0.0357245,0.425838,""
16874.3,20,0.237491,4.38781,0.055411,1.02375,""
16885.3,20,0.289782,7.30171,0.0676114,1.70362,""
16898.3,20,0.330189,11.3497,0.077039,2.64809,""
16913.8,20,0.355562,16.6898,0.0829589,3.89402,""
16927.4,20,0.363917,21.605,0.0849083,5.04083,""
16938.3,20,0.364196,25.5688,0.0849734,5.96565,""
16949.3,20,0.360306,29.5564,0.0840658,6.89603,""
16962.3,20,0.351823,34.188,0.0820865,7.97666,""
16978.8,20,0.337244,39.8767,0.078685,9.30393,""
16994.3,20,0.321646,44.985,0.0750457,10.4958,""
17021.2,20,0.292603,53.2547,0.0682694,12.4253,""
17045.3,20,0.26675,59.9873,0.0622376,13.9961,""
17067.7,20,0.243797,65.7123,0.0568821,15.3318,""
17088.3,20,0.223973,70.5195,0.0522568,16.4534,""
17107.3,20,0.206961,74.612,0.0482877,17.4083,""
17125.3,20,0.1919,78.2003,0.0447738,18.2455,""
17144.8,20,0.176755,81.7927,0.0412401,19.0837,""
17164.3,20,0.162811,85.1017,0.0379868,19.8557,""
17186.7,20,0.148135,88.5875,0.0345625,20.669,""
17207.8,20,0.135651,91.5742,0.0316498,21.3659,""
17230.9,20,0.12324,94.557,0.0287541,22.0618,""
17252.3,20,0.112773,97.0853,0.026312,22.6517,""
17274.7,20,0.102908,99.5032,0.0240103,23.2159,""
17295.3,20,0.0946852,101.533,0.0220918,23.6895,""
17316.7,20,0.086915,103.479,0.0202788,24.1434,""
17336.8,20,0.0802698,105.155,0.0187284,24.5345,""
17356.7,20,0.0742257,106.694,0.0173182,24.8936,""
17384.3,20,0.0667066,108.634,0.0155638,25.3463,""
17404.7,20,0.0616959,109.946,0.0143947,25.6523,""
17431.3,20,0.0558329,111.505,0.0130268,26.0161,""
17467.7,20,0.0488142,113.408,0.0113892,26.46,""
17503.9,20,0.0428725,115.062,0.0100029,26.8459,""
17538.6,20,0.037956,116.463,0.00885582,27.1728,""
17569.7,20,0.0341244,117.584,0.00796183,27.4345,""
17610.2,20,0.0298334,118.877,0.00696067,27.7362,""
17656.6,20,0.0257213,120.163,0.00600123,28.0361,""
17701.1,20,0.0224403,121.232,0.00523572,28.2856,""
17744.5,20,0.0197565,122.146,0.00460953,28.4987,""
17789.5,20,0.0174081,122.98,0.00406163,28.6935,""
17838.2,20,0.0152857,123.776,0.00356643,28.879,""
17891.5,20,0.0133667,124.537,0.00311869,29.0568,""
17945.3,20,0.0117801,125.212,0.00274852,29.2141,""
18007.9,20,0.0102753,125.901,0.0023974,29.3749,""
18083.4,20,0.00885186,126.62,0.0020653,29.5427,""
18149.8,20,0.0078659,127.174,0.00183525,29.6721,""
18229.9,20,0.00693088,127.765,0.0016171,29.8098,""
18327.2,20,0.00606984,128.395,0.0014162,29.9569,""
18433.1,20,0.00537695,129,0.00125454,30.098,""
18550.3,20,0.00481555,129.595,0.00112355,30.2369,""
18678.8,20,0.00436757,130.184,0.00101903,30.3742,""
18828.7,20,0.0039883,130.809,0.000930542,30.52,""
19009,20,0.00366195,131.497,0.000854398,30.6806,""
19227.8,20,0.00337784,132.265,0.000788111,30.8599,""
19588.5,20,0.00304701,133.42,0.000710921,31.1293,""
19856.1,20,0.00286295,134.21,0.000667977,31.3137,""
20228.9,20,0.00265283,135.237,0.000618952,31.5532,""
20491.8,20,0.00252895,135.918,0.000590048,31.7121,""
20937.2,20,0.00235251,137.004,0.000548881,31.9654,""
21475.8,20,0.00218417,138.223,0.000509606,32.25,""
21891.5,20,0.00208415,139.11,0.00048627,32.4568,""
22264.4,20,0.00201167,139.873,0.000469358,32.6348,""
22578.7,20,0.00196318,140.497,0.000458044,32.7805,""
22883.6,20,0.0019255,141.09,0.000449253,32.9187,""
23146.9,20,0.00189861,141.593,0.00044298,33.0362,""
23393.7,20,0.00186875,142.058,0.000436013,33.1447,""
23717.8,20,0.00184887,142.659,0.000431374,33.2849,""
24034.5,20,0.00188253,143.249,0.000439227,33.4225,""
24324.9,20,0.00193438,143.803,0.000451325,33.5518,""
24642.4,20,0.0019957,144.427,0.000465633,33.6973,""
25006.4,20,0.00206212,145.166,0.00048113,33.8697,""
25403.5,20,0.00212782,145.998,0.000496457,34.0638,""
25713.1,20,0.00217458,146.664,0.000507368,34.2192,""
26043.3,20,0.00222326,147.39,0.000518726,34.3887,""
26280.1,20,0.00225933,147.921,0.000527142,34.5126,""
26532.2,20,0.00229861,148.495,0.000536306,34.6466,""
26804.4,20,0.0023401,149.127,0.000545986,34.7939,""
27146.6,20,0.00239633,149.937,0.000559106,34.9829,""
27397.8,20,0.00243903,150.544,0.00056907,35.1246,""
27850.6,20,0.0025192,151.667,0.000587775,35.3865,""
28111.8,20,0.00256837,152.331,0.000599245,35.5415,""
28516.9,20,0.00264739,153.387,0.000617683,35.7879,""
28863.2,20,0.0027177,154.316,0.000634088,36.0047,""
29403,20,0.00283355,155.814,0.000661117,36.3542,""
29596.7,20,0.00287729,156.367,0.000671323,36.4832,""
29996.8,20,0.00296855,157.537,0.000692616,36.7561,""
30272.2,20,0.00303493,158.363,0.000708103,36.9489,""
30493.5,20,0.00308858,159.041,0.000720621,37.107,""
30944.8,20,0.00320273,160.46,0.000747253,37.4382,""
31241.8,20,0.00327985,161.423,0.000765248,37.6628,""
31562.5,20,0.00336621,162.489,0.000785397,37.9115,""
31888.2,20,0.00345601,163.599,0.000806348,38.1707,""
32112.6,20,0.00352004,164.382,0.000821287,38.3533,""
32436.7,20,0.00361211,165.538,0.00084277,38.623,""
32739.2,20,0.00370179,166.644,0.000863694,38.8811,""
33039.8,20,0.00379117,167.77,0.000884547,39.1438,""
33350.6,20,0.00388657,168.963,0.000906805,39.4221,""
33676.3,20,0.00398816,170.246,0.000930509,39.7213,""
34092.5,20,0.004121,171.933,0.000961502,40.115,""
34569.3,20,0.0042758,173.935,0.00099762,40.5821,""
34888.8,20,0.00438274,175.318,0.00102257,40.9048,""
35234.5,20,0.00449918,176.853,0.00104974,41.2629,""
35656.9,20,0.00464315,178.784,0.00108333,41.7134,""
36138.6,20,0.00481128,181.061,0.00112256,42.2448,""
36638.8,20,0.00498718,183.512,0.0011636,42.8165,""
37152.4,20,0.00517166,186.12,0.00120664,43.4251,""
37431.6,20,0.00527234,187.578,0.00123013,43.7653,""
37904.7,20,0.00544371,190.113,0.00127011,44.3567,""
38127.7,20,0.00552619,191.336,0.00128936,44.6421,""
38302.3,20,0.00558881,192.306,0.00130397,44.8685,""
38493.1,20,0.00565928,193.379,0.00132041,45.1188,""
38779.2,20,0.00576384,195.013,0.00134481,45.5,""
39077.1,20,0.00587322,196.747,0.00137033,45.9045,""
39341.8,20,0.00596906,198.314,0.00139269,46.2701,""
39879.4,20,0.00616538,201.575,0.00143849,47.0311,""
40251.8,20,0.00630018,203.897,0.00146994,47.5728,""
40597.3,20,0.00642535,206.095,0.00149915,48.0857,""
40922.6,20,0.00654271,208.205,0.00152653,48.5778,""
41130.1,20,0.00661702,209.57,0.00154387,48.8964,""
41445,20,0.00672874,211.672,0.00156993,49.3868,""
41678.8,20,0.0068117,213.254,0.00158929,49.756,""
42005.6,20,0.00692589,215.499,0.00161593,50.2798,""
42369.8,20,0.00705165,218.045,0.00164528,50.8737,""
42915.2,20,0.00723699,221.941,0.00168852,51.7827,""
43210.5,20,0.00733678,224.093,0.0017118,52.2849,""
43678.1,20,0.00749022,227.56,0.0017476,53.0937,""
44049.2,20,0.00760994,230.361,0.00177554,53.7474,""
44290.7,20,0.00768523,232.208,0.0017931,54.1782,""
44578.1,20,0.00777509,234.43,0.00181407,54.6966,""
45035.5,20,0.00791334,238.018,0.00184632,55.5339,""
45630.1,20,0.00808698,242.775,0.00188684,56.6438,""
45976.8,20,0.00818434,245.596,0.00190955,57.3019,""
46285.3,20,0.00826921,248.134,0.00192935,57.8941,""
46873.9,20,0.00842292,253.047,0.00196522,59.0403,""
47285.6,20,0.00852642,256.536,0.00198937,59.8544,""
47514.6,20,0.00858107,258.495,0.00200212,60.3114,""
47697.8,20,0.00862491,260.071,0.00201234,60.6792,""
47905.6,20,0.00867236,261.869,0.00202342,61.0986,""
48182.5,20,0.00873412,264.278,0.00203783,61.6607,""
48670.7,20,0.0088385,268.568,0.00206218,62.6616,""
48911.5,20,0.00888751,270.702,0.00207361,63.1597,""
49214.9,20,0.00894714,273.408,0.00208753,63.791,""
49667.8,20,0.00903165,277.48,0.00210725,64.741,""
50014,20,0.00909262,280.617,0.00212147,65.473,""
50406.5,20,0.0091575,284.199,0.00213661,66.3087,""
50689.8,20,0.00920114,286.799,0.00214679,66.9154,""
51032.3,20,0.0092518,289.96,0.00215861,67.6527,""
51329.3,20,0.00929264,292.713,0.00216814,68.2952,""
51728.9,20,0.00934428,296.438,0.00218019,69.1641,""
51963.7,20,0.00937213,298.634,0.00218669,69.6767,""
52238,20,0.0094033,301.209,0.00219396,70.2775,""
52457.2,20,0.00942571,303.273,0.00219919,70.7591,""
52787.9,20,0.00946013,306.396,0.00220722,71.4876,""
53291.9,20,0.00950445,311.175,0.00221756,72.6026,""
53614.4,20,0.00952971,314.245,0.00222345,73.3189,""
54005,20,0.00955721,317.973,0.00222987,74.1887,""
54351.3,20,0.00957841,321.286,0.00223481,74.9618,""
54692.2,20,0.00959538,324.554,0.00223877,75.7242,""
55195.8,20,0.00961762,329.393,0.00224396,76.8532,""
55412.3,20,0.0096252,331.476,0.00224573,77.3392,""
55888.6,20,0.0096388,336.064,0.0022489,78.4097,""
56248,20,0.00964645,339.53,0.00225069,79.2183,""
56541.3,20,0.0096513,342.36,0.00225182,79.8786,""
56927.3,20,0.00965324,346.085,0.00225227,80.7478,""
57333.4,20,0.0096541,350.006,0.00225247,81.6627,""
57573.2,20,0.0096535,352.321,0.00225233,82.2027,""
57814.5,20,0.00965079,354.65,0.0022517,82.746,""
58060.3,20,0.00964848,357.022,0.00225116,83.2995,""
58544.4,20,0.00963921,361.69,0.002249,84.3888,""
58972.2,20,0.00962841,365.812,0.00224648,85.3505,""
59419.5,20,0.00961469,370.116,0.00224328,86.3546,""
59778.6,20,0.00960261,373.566,0.00224046,87.1597,""
60121.4,20,0.00958884,376.855,0.00223725,87.9271,""
60440.7,20,0.0095753,379.915,0.00223409,88.641,""
60978.7,20,0.00955074,385.06,0.00222836,89.8414,""
61455.2,20,0.00952694,389.606,0.0022228,90.9019,""
61788.9,20,0.00951024,392.782,0.00221891,91.643,""
62182.3,20,0.0094892,396.519,0.002214,92.5149,""
62489.1,20,0.00947399,399.428,0.00221045,93.1937,""
62827.6,20,0.00945856,402.632,0.00220685,93.9413,""
63217.9,20,0.00944241,406.321,0.00220308,94.802,""
63400.7,20,0.0094364,408.046,0.00220168,95.2044,""
63639.1,20,0.00943144,410.295,0.00220052,95.7291,""
64023,20,0.00942754,413.915,0.00219961,96.5738,""
64189.4,20,0.00942901,415.484,0.00219995,96.9399,""
64476.5,20,0.00943384,418.192,0.00220108,97.5716,""
64729.9,20,0.00944204,420.583,0.002203,98.1295,""
64958.5,20,0.00944899,422.742,0.00220462,98.6333,""
65239.1,20,0.00945582,425.394,0.00220621,99.2521,""
65483.6,20,0.0094618,427.708,0.00220761,99.7919,""
65778.8,20,0.00946637,430.501,0.00220867,100.444,""
66100.6,20,0.00946843,433.548,0.00220915,101.154,""
66386.9,20,0.00946891,436.259,0.00220927,101.787,""
66676.7,20,0.00946714,439.003,0.00220885,102.427,""
67103.5,20,0.00945904,443.042,0.00220696,103.37,""
67436.8,20,0.00944876,446.193,0.00220456,104.105,""
67730.8,20,0.00943675,448.969,0.00220176,104.753,""
67955.9,20,0.00942573,451.092,0.00219919,105.248,""
68510.4,20,0.00939363,456.31,0.0021917,106.465,""
68943.5,20,0.00936308,460.372,0.00218457,107.413,""
69293.4,20,0.00933476,463.643,0.00217797,108.176,""
69628.3,20,0.00930645,466.765,0.00217136,108.905,""
70039.3,20,0.00926675,470.581,0.0021621,109.795,""
70375.5,20,0.00923254,473.691,0.00215412,110.521,""
70610.9,20,0.00920789,475.862,0.00214836,111.027,""
70865.8,20,0.00918074,478.206,0.00214203,111.574,""
71231.8,20,0.00913956,481.559,0.00213242,112.356,""
71539.2,20,0.00910462,484.363,0.00212427,113.01,""
71734.4,20,0.00908134,486.138,0.00211884,113.425,""
71988.9,20,0.00905123,488.445,0.00211181,113.963,""
72333.2,20,0.00901012,491.554,0.00210222,114.688,""
72568.3,20,0.0089812,493.669,0.00209547,115.182,""
72794.1,20,0.00895372,495.694,0.00208906,115.654,""
72959.2,20,0.00893296,497.171,0.00208422,115.999,""
73251.1,20,0.0088968,499.773,0.00207578,116.606,""
73601.2,20,0.00885269,502.88,0.00206549,117.331,""
74323,20,0.0087613,509.237,0.00204417,118.814,""
74644.7,20,0.00872073,512.049,0.0020347,119.47,""
75057.3,20,0.00866807,515.636,0.00202242,120.307,""
75301.7,20,0.00863642,517.751,0.00201503,120.801,""
75645,20,0.00859253,520.708,0.00200479,121.491,""
75957.8,20,0.00855187,523.39,0.0019953,122.116,""
76337.6,20,0.00850335,526.629,0.00198398,122.872,""
76738.3,20,0.00845266,530.026,0.00197216,123.665,""
77171.2,20,0.00839739,533.673,0.00195926,124.515,""
77591.5,20,0.00834331,537.191,0.00194664,125.336,""
77921,20,0.00830206,539.933,0.00193702,125.976,""
78206.8,20,0.00826657,542.301,0.00192874,126.528,""
78479.3,20,0.0082317,544.549,0.0019206,127.053,""
78671.8,20,0.00820722,546.131,0.00191489,127.422,""
79189.4,20,0.00814353,550.363,0.00190003,128.409,""
79456.4,20,0.00810946,552.532,0.00189208,128.916,""
79657.5,20,0.00808518,554.161,0.00188642,129.296,""
80079.4,20,0.00803213,557.561,0.00187404,130.089,""
80368.2,20,0.00799675,559.875,0.00186578,130.629,""
80697.3,20,0.00795684,562.5,0.00185647,131.241,""
81240.8,20,0.00788975,566.807,0.00184082,132.246,""
81742.3,20,0.00782991,570.749,0.00182686,133.166,""
82184.8,20,0.00777693,574.201,0.0018145,133.971,""
82520.3,20,0.00773678,576.804,0.00180513,134.579,""
82890.4,20,0.00769315,579.659,0.00179495,135.245,""
83144.3,20,0.00766395,581.609,0.00178814,135.7,""
83499.5,20,0.00762204,584.323,0.00177836,136.333,""
83973.3,20,0.00756708,587.921,0.00176554,137.173,""
84147.9,20,0.00754779,589.241,0.00176103,137.48,""
84344.6,20,0.00752469,590.723,0.00175564,137.826,""
84771.8,20,0.00747619,593.928,0.00174433,138.574,""
84997.8,20,0.00745103,595.614,0.00173846,138.967,""
85310.9,20,0.00741652,597.942,0.00173041,139.511,""
85619.5,20,0.00738227,600.225,0.00172241,140.043,""
85897.6,20,0.0073513,602.274,0.00171519,140.521,""
86341.8,20,0.00730319,605.529,0.00170396,141.281,""
86562.4,20,0.00727922,607.137,0.00169837,141.656,""
86854.8,20,0.00724798,609.261,0.00169108,142.151,""
87097.2,20,0.00722202,611.015,0.00168503,142.561,""
87404.3,20,0.00718945,613.228,0.00167743,143.077,""
87811,20,0.00714743,616.143,0.00166762,143.757,""
88056.7,20,0.00712182,617.896,0.00166165,144.166,""
88453.5,20,0.00708124,620.714,0.00165218,144.824,""
88892.7,20,0.007037,623.814,0.00164186,145.547,""
89131,20,0.00701277,625.489,0.0016362,145.938,""
89573.1,20,0.00696974,628.579,0.00162616,146.659,""
89929.6,20,0.00693408,631.058,0.00161784,147.237,""
90325.2,20,0.00689543,633.793,0.00160883,147.875,""
90609,20,0.00686882,635.746,0.00160262,148.331,""
91046.2,20,0.00682655,638.74,0.00159276,149.029,""
91450.5,20,0.00678898,641.492,0.00158399,149.672,""
91875.3,20,0.00674861,644.367,0.00157457,150.342,""
92453.3,20,0.00669464,648.252,0.00156198,151.249,""
92941.1,20,0.00664978,651.507,0.00155151,152.008,""
93229.3,20,0.0066234,653.42,0.00154536,152.454,""
93490.6,20,0.00659993,655.147,0.00153988,152.858,""
93738.1,20,0.00657863,656.778,0.00153491,153.238,""
93944,20,0.00656042,658.131,0.00153066,153.554,""
94232.4,20,0.00653536,660.019,0.00152482,153.994,""
94535.8,20,0.00650903,661.998,0.00151867,154.456,""
95036,20,0.00646517,665.243,0.00150844,155.213,""
95408.1,20,0.00643406,667.642,0.00150118,155.773,""
95727.7,20,0.00640645,669.694,0.00149474,156.252,""
96063.5,20,0.0063778,671.841,0.00148806,156.752,""
96279.8,20,0.00636017,673.219,0.00148394,157.074,""
96668.2,20,0.00632683,675.682,0.00147616,157.649,""
96935.2,20,0.00630442,677.368,0.00147093,158.042,""
97189.7,20,0.00628374,678.971,0.00146611,158.416,""
97421.2,20,0.00626376,680.423,0.00146145,158.755,""
97631.7,20,0.00624744,681.74,0.00145764,159.062,""
98006.4,20,0.00621645,684.075,0.00145041,159.607,""
98288,20,0.00619385,685.822,0.00144514,160.015,""
98624.1,20,0.00616585,687.899,0.0014386,160.499,""
98955.5,20,0.00613974,689.938,0.00143251,160.975,""
99277.7,20,0.00611333,691.912,0.00142635,161.435,""
99626.5,20,0.00608515,694.04,0.00141977,161.932,""
100055,20,0.0060517,696.64,0.00141197,162.539,""
100289,20,0.00603322,698.055,0.00140766,162.869,""
100630,20,0.00600667,700.107,0.00140146,163.347,""
100898,20,0.00598587,701.71,0.00139661,163.721,""
101176,20,0.00596363,703.373,0.00139142,164.109,""
101543,20,0.00593491,705.56,0.00138472,164.62,""
102105,20,0.00589068,708.879,0.0013744,165.394,""
102301,20,0.00587487,710.032,0.00137071,165.663,""
102575,20,0.0058533,711.638,0.00136568,166.038,""
102816,20,0.0058334,713.05,0.00136104,166.367,""
103309,20,0.00579472,715.913,0.00135201,167.035,""
103683,20,0.00576568,718.075,0.00134524,167.54,""
103948,20,0.00574481,719.601,0.00134037,167.896,""
104165,20,0.00572772,720.844,0.00133638,168.186,""
104388,20,0.00571066,722.121,0.0013324,168.484,""
104657,20,0.00568975,723.654,0.00132752,168.841,""
104996,20,0.00566229,725.58,0.00132111,169.291,""
105430,20,0.00562925,728.029,0.0013134,169.862,""
105661,20,0.00561062,729.33,0.00130906,170.166,""
105927,20,0.00559006,730.814,0.00130426,170.512,""
106209,20,0.00556882,732.389,0.0012993,170.879,""
106423,20,0.00555109,733.578,0.00129517,171.157,""
106795,20,0.00552304,735.641,0.00128862,171.638,""
107155,20,0.00549435,737.621,0.00128193,172.1,""
107549,20,0.00546397,739.781,0.00127484,172.604,""
107878,20,0.0054382,741.574,0.00126883,173.022,""
108237,20,0.00541051,743.525,0.00126237,173.478,""
108542,20,0.00538687,745.172,0.00125685,173.862,""
108951,20,0.00535521,747.366,0.00124947,174.374,""
109213,20,0.00533455,748.766,0.00124465,174.701,""
109469,20,0.00531503,750.129,0.00124009,175.018,""
109644,20,0.00530237,751.058,0.00123714,175.235,""
109882,20,0.00528352,752.319,0.00123274,175.529,""
110093,20,0.00526801,753.433,0.00122912,175.789,""
110401,20,0.00524368,755.048,0.00122344,176.166,""
110775,20,0.00521565,757.007,0.0012169,176.623,""
111179,20,0.00518389,759.105,0.00120949,177.113,""
111483,20,0.00516118,760.681,0.0012042,177.48,""
111760,20,0.00513986,762.107,0.00119922,177.813,""
112192,20,0.00510752,764.321,0.00119167,178.33,""
112759,20,0.00506441,767.201,0.00118162,179.002,""
113428,20,0.00501316,770.572,0.00116966,179.788,""
113734,20,0.00498998,772.104,0.00116425,180.145,""
113949,20,0.00497332,773.173,0.00116036,180.395,""
114250,20,0.00495045,774.669,0.00115503,180.744,""
114564,20,0.00492801,776.221,0.00114979,181.106,""
114850,20,0.00490504,777.624,0.00114443,181.433,""
115173,20,0.00488172,779.208,0.00113899,181.803,""
115372,20,0.00486601,780.176,0.00113533,182.029,""
115608,20,0.00484857,781.323,0.00113126,182.297,""
116017,20,0.00481833,783.301,0.0011242,182.758,""
116315,20,0.00479589,784.732,0.00111897,183.092,""
116657,20,0.00477047,786.369,0.00111304,183.474,""
116910,20,0.00475236,787.572,0.00110881,183.755,""
117218,20,0.00472928,789.032,0.00110342,184.095,""
117642,20,0.00469815,791.033,0.00109616,184.562,""
117933,20,0.00467666,792.396,0.00109115,184.88,""
118343,20,0.0046462,794.306,0.00108404,185.326,""
118629,20,0.00462523,795.632,0.00107915,185.635,""
118857,20,0.00460892,796.686,0.00107534,185.881,""
119166,20,0.00458615,798.106,0.00107003,186.212,""
119724,20,0.00454573,800.656,0.0010606,186.807,""
119923,20,0.00453136,801.556,0.00105725,187.017,""
120371,20,0.00449849,803.578,0.00104958,187.489,""
120569,20,0.00448433,804.468,0.00104627,187.697,""
120818,20,0.00446667,805.582,0.00104215,187.957,""
121090,20,0.00444735,806.794,0.00103765,188.239,""
121262,20,0.00443467,807.561,0.00103469,188.418,""
121576,20,0.00441256,808.947,0.00102953,188.742,""
121856,20,0.00439264,810.18,0.00102488,189.03,""
122121,20,0.00437405,811.342,0.00102054,189.301,""
122416,20,0.00435272,812.628,0.00101557,189.601,""
122766,20,0.00432856,814.149,0.00100993,189.956,""
123034,20,0.00430922,815.305,0.00100542,190.225,""
123404,20,0.00428395,816.895,0.000999521,190.596,""
123610,20,0.00426919,817.778,0.000996079,190.802,""
123843,20,0.0042535,818.768,0.000992416,191.033,""
124058,20,0.00423945,819.682,0.00098914,191.246,""
124334,20,0.00422069,820.851,0.000984762,191.519,""
124632,20,0.00420115,822.103,0.000980202,191.811,""
124802,20,0.00418935,822.818,0.00097745,191.978,""
124987,20,0.00417708,823.593,0.000974587,192.159,""
125443,20,0.00414657,825.488,0.000967468,192.601,""
125804,20,0.00412231,826.982,0.000961808,192.95,""
126135,20,0.00409914,828.341,0.000956402,193.267,""
126561,20,0.00407143,830.085,0.000949936,193.674,""
126936,20,0.00404641,831.606,0.000944099,194.028,""
127520,20,0.00400781,833.958,0.000935093,194.577,""
127862,20,0.00398507,835.323,0.000929788,194.896,""
128198,20,0.00396375,836.658,0.000924813,195.207,""
128414,20,0.00394982,837.512,0.000921563,195.407,""
128745,20,0.00392778,838.816,0.00091642,195.711,""
129022,20,0.00391037,839.903,0.000912358,195.964,""
129481,20,0.00388103,841.691,0.000905514,196.381,""
129736,20,0.00386446,842.677,0.000901648,196.611,""
130075,20,0.00384312,843.984,0.000896668,196.917,""
130477,20,0.00381781,845.525,0.000890763,197.276,""
130782,20,0.00379841,846.685,0.000886237,197.547,""
131114,20,0.00377802,847.943,0.000881479,197.84,""
131425,20,0.00375963,849.118,0.000877188,198.114,""
131786,20,0.00373751,850.469,0.000872027,198.43,""
132027,20,0.00372361,851.367,0.000868784,198.639,""
132317,20,0.00370637,852.445,0.000864763,198.891,""
132547,20,0.00369334,853.297,0.000861723,199.089,""
133018,20,0.00366749,855.032,0.000855691,199.494,""
133438,20,0.00364289,856.567,0.000849951,199.852,""
133726,20,0.00362619,857.614,0.000846056,200.097,""
134218,20,0.00359805,859.391,0.00083949,200.511,""
134656,20,0.00357362,860.96,0.000833789,200.877,""
135017,20,0.00355266,862.246,0.000828899,201.177,""
135416,20,0.00353052,863.66,0.000823733,201.507,""
135759,20,0.00351117,864.869,0.000819218,201.789,""
136042,20,0.0034964,865.86,0.000815772,202.02,""
136268,20,0.00348442,866.648,0.000812977,202.204,""
136700,20,0.0034609,868.147,0.000807488,202.554,""
136913,20,0.00344893,868.883,0.000804696,202.726,""
137193,20,0.00343457,869.849,0.000801346,202.951,""
137506,20,0.00341726,870.921,0.000797307,203.201,""
137895,20,0.00339672,872.246,0.000792516,203.51,""
138284,20,0.00337627,873.564,0.000787743,203.818,""
138471,20,0.00336674,874.192,0.000785521,203.965,""
138701,20,0.00335406,874.967,0.000782562,204.145,""
138915,20,0.00334345,875.682,0.000780086,204.312,""
139126,20,0.00333188,876.388,0.000777386,204.477,""
139405,20,0.00331731,877.313,0.000773988,204.693,""
140089,20,0.00328214,879.572,0.000765781,205.22,""
140436,20,0.00326508,880.706,0.000761801,205.484,""
140652,20,0.0032546,881.413,0.000759356,205.649,""
140957,20,0.00323823,882.402,0.000755536,205.88,""
141430,20,0.00321545,883.93,0.000750222,206.236,""
141667,20,0.00320305,884.688,0.000747328,206.413,""
141942,20,0.00319052,885.567,0.000744405,206.619,""
142149,20,0.00317907,886.228,0.000741733,206.773,""
142655,20,0.00315487,887.83,0.000736086,207.147,""
143098,20,0.00313313,889.222,0.000731015,207.471,""
143403,20,0.00311876,890.175,0.000727663,207.694,""
143666,20,0.00310605,890.994,0.000724696,207.885,""
143906,20,0.00309431,891.739,0.000721958,208.059,""
144170,20,0.00308202,892.553,0.000719091,208.248,""
144429,20,0.00307004,893.351,0.000716295,208.435,""
144856,20,0.00305066,894.656,0.000711774,208.739,""
145298,20,0.00302956,896.001,0.000706851,209.053,""
145832,20,0.00300591,897.611,0.000701333,209.429,""
146138,20,0.00299189,898.531,0.000698062,209.643,""
146510,20,0.00297487,899.639,0.00069409,209.902,""
146817,20,0.00296186,900.55,0.000691056,210.114,""
147053,20,0.00295081,901.25,0.000688475,210.278,""
147290,20,0.00294058,901.946,0.00068609,210.44,""
147621,20,0.00292702,902.917,0.000682925,210.667,""
147918,20,0.00291418,903.786,0.00067993,210.869,""
148456,20,0.0028906,905.348,0.000674429,211.234,""
148938,20,0.00287136,906.735,0.00066994,211.557,""
149356,20,0.00285396,907.932,0.000665879,211.837,""
149660,20,0.00284165,908.798,0.000663008,212.039,""
149962,20,0.00282958,909.653,0.000660191,212.238,""
150266,20,0.00281701,910.513,0.000657258,212.439,""
150448,20,0.00280927,911.024,0.000655453,212.558,""
150752,20,0.00279785,911.876,0.000652788,212.757,""
150990,20,0.00278788,912.542,0.000650463,212.912,""
151330,20,0.00277508,913.486,0.000647477,213.133,""
151655,20,0.0027628,914.386,0.00064461,213.343,""
152045,20,0.00274766,915.461,0.000641077,213.593,""
152337,20,0.00273709,916.263,0.000638611,213.78,""
152572,20,0.00272796,916.905,0.000636483,213.93,""
152891,20,0.00271602,917.772,0.000633695,214.133,""
153133,20,0.00270863,918.43,0.000631972,214.286,""
153329,20,0.00270013,918.96,0.000629988,214.41,""
153566,20,0.00269146,919.598,0.000627965,214.559,""
153940,20,0.00267821,920.602,0.000624875,214.793,""
154366,20,0.00266299,921.741,0.000621323,215.059,""
154740,20,0.00265061,922.735,0.000618435,215.29,""
155150,20,0.00263639,923.818,0.000615117,215.543,""
155788,20,0.00261556,925.492,0.000610257,215.934,""
156004,20,0.00260807,926.058,0.000608508,216.066,""
156235,20,0.00260087,926.659,0.000606829,216.206,""
156448,20,0.00259334,927.211,0.000605073,216.335,""
156694,20,0.00258589,927.85,0.000603333,216.484,""
157051,20,0.00257428,928.771,0.000600625,216.699,""
157358,20,0.0025648,929.559,0.000598414,216.883,""
157815,20,0.00255056,930.727,0.000595092,217.155,""
158519,20,0.00252825,932.515,0.000589886,217.572,""
158815,20,0.00251978,933.263,0.000587909,217.747,""
159240,20,0.00250659,934.33,0.000584833,217.996,""
159558,20,0.00249783,935.126,0.000582789,218.181,""
159886,20,0.00248718,935.943,0.000580304,218.372,""
160181,20,0.00247883,936.676,0.000578355,218.543,""
160741,20,0.00246313,938.06,0.000574692,218.866,""
161108,20,0.00245236,938.962,0.000572179,219.077,""
161440,20,0.00244331,939.774,0.000570067,219.266,""
161941,20,0.00243023,940.996,0.000567016,219.551,""
162431,20,0.00241655,942.184,0.000563823,219.828,""
162911,20,0.00240408,943.34,0.000560914,220.098,""
163141,20,0.00239822,943.892,0.000559546,220.227,""
163597,20,0.00238695,944.984,0.000556918,220.482,""
163940,20,0.00237773,945.801,0.000554767,220.672,""
164121,20,0.0023728,946.23,0.000553617,220.772,""
164418,20,0.00236471,946.935,0.000551729,220.937,""
164690,20,0.00235895,947.577,0.000550385,221.087,""
164969,20,0.00235181,948.233,0.000548719,221.24,""
165156,20,0.0023476,948.672,0.000547737,221.342,""
165360,20,0.00234165,949.151,0.000546349,221.454,""
165739,20,0.00233346,950.037,0.000544437,221.66,""
166267,20,0.00232222,951.266,0.000541815,221.947,""
166647,20,0.00231273,952.148,0.000539601,222.153,""
167199,20,0.00229951,953.42,0.000536515,222.45,""
167508,20,0.00229351,954.13,0.000535116,222.615,""
168019,20,0.0022812,955.299,0.000532244,222.888,""
168449,20,0.00227132,956.276,0.000529939,223.116,""
168792,20,0.00226419,957.054,0.000528275,223.298,""
169094,20,0.00225732,957.738,0.000526673,223.457,""
169577,20,0.0022478,958.826,0.000524451,223.711,""
170293,20,0.00223411,960.43,0.000521257,224.085,""
170579,20,0.00222977,961.069,0.000520245,224.234,""
170932,20,0.00222166,961.853,0.000518354,224.417,""
171267,20,0.00221514,962.597,0.000516833,224.591,""
171469,20,0.00221081,963.045,0.000515822,224.695,""
171793,20,0.00220481,963.759,0.000514421,224.862,""
172126,20,0.00219924,964.493,0.000513122,225.033,""
172519,20,0.00219143,965.355,0.0005113,225.235,""
172828,20,0.00218616,966.032,0.000510071,225.393,""
173255,20,0.00217921,966.963,0.000508447,225.61,""
173528,20,0.00217315,967.557,0.000507035,225.748,""
173857,20,0.00216813,968.272,0.000505863,225.915,""
174108,20,0.00216259,968.817,0.000504571,226.042,""
174627,20,0.00215371,969.937,0.000502499,226.304,""
174904,20,0.00214936,970.533,0.000501484,226.443,""
175192,20,0.00214646,971.151,0.000500808,226.587,""
175565,20,0.00213762,971.95,0.000498745,226.773,""
175896,20,0.0021338,972.658,0.000497855,226.938,""
176142,20,0.00212921,973.182,0.000496782,227.061,""
176541,20,0.0021235,974.03,0.00049545,227.259,""
176935,20,0.0021179,974.865,0.000494143,227.453,""
177466,20,0.00210947,975.988,0.000492178,227.715,""
177701,20,0.00210652,976.483,0.000491488,227.831,""
177997,20,0.00210173,977.105,0.000490372,227.976,""
178397,20,0.00209529,977.946,0.000488869,228.172,""
178832,20,0.00209022,978.855,0.000487685,228.384,""
179410,20,0.00208106,980.061,0.000485548,228.666,""
179760,20,0.00207623,980.789,0.00048442,228.836,""
179951,20,0.00207442,981.185,0.000483999,228.928,""
180121,20,0.00207114,981.537,0.000483233,229.01,""
180527,20,0.00206484,982.377,0.000481764,229.206,""
180862,20,0.00206074,983.068,0.000480807,229.367,""
181208,20,0.00205601,983.78,0.000479703,229.533,""
181627,20,0.00204868,984.64,0.000477993,229.734,""
181929,20,0.00204543,985.258,0.000477236,229.878,""
182238,20,0.00204146,985.889,0.000476309,230.025,""
182546,20,0.00203766,986.518,0.000475422,230.172,""
182898,20,0.00203207,987.235,0.000474118,230.339,""
183157,20,0.00202889,987.76,0.000473376,230.462,""
183392,20,0.00202566,988.237,0.000472623,230.573,""
183882,20,0.00201976,989.228,0.000471245,230.804,""
184233,20,0.00201328,989.934,0.000469734,230.969,""
184494,20,0.00201028,990.461,0.000469033,231.092,""
184748,20,0.00200601,990.97,0.000468037,231.211,""
185005,20,0.00200229,991.486,0.00046717,231.331,""
185475,20,0.00199648,992.424,0.000465815,231.55,""
185744,20,0.00199202,992.96,0.000464774,231.675,""
185935,20,0.00198955,993.342,0.000464196,231.764,""
186234,20,0.00198698,993.935,0.000463598,231.903,""
186602,20,0.00198237,994.667,0.000462523,232.074,""
186928,20,0.00197929,995.313,0.000461803,232.224,""
187260,20,0.00197539,995.968,0.000460894,232.377,""
187583,20,0.00197185,996.607,0.000460067,232.526,""
188122,20,0.00196606,997.668,0.000458718,232.774,""
188346,20,0.00196343,998.109,0.000458104,232.876,""
188605,20,0.00196,998.617,0.000457303,232.995,""
188830,20,0.00195832,999.058,0.00045691,233.098,""
189164,20,0.0019538,999.71,0.000455857,233.25,""
189809,20,0.0019476,1000.97,0.00045441,233.544,""
190238,20,0.00194327,1001.8,0.000453398,233.739,""
190694,20,0.00193647,1002.69,0.000451813,233.945,""
191082,20,0.00193197,1003.44,0.000450763,234.12,""
191391,20,0.00192896,1004.03,0.000450061,234.259,""
191746,20,0.0019256,1004.72,0.000449277,234.418,""
192162,20,0.0019206,1005.52,0.000448109,234.605,""
192621,20,0.00191634,1006.4,0.000447117,234.811,""
192864,20,0.00191276,1006.86,0.000446281,234.919,""
193218,20,0.0019091,1007.54,0.000445427,235.077,""
193548,20,0.00190622,1008.17,0.000444755,235.224,""
193828,20,0.0019028,1008.7,0.000443958,235.349,""
194222,20,0.00189795,1009.45,0.000442826,235.523,""
194688,20,0.00189329,1010.34,0.000441738,235.73,""
195039,20,0.00189066,1011,0.000441124,235.884,""
195335,20,0.00188695,1011.56,0.000440259,236.015,""
195755,20,0.00188254,1012.35,0.000439229,236.2,""
195987,20,0.00188016,1012.79,0.000438675,236.302,""
196607,20,0.00187402,1013.95,0.000437243,236.573,""
197050,20,0.00186971,1014.78,0.000436236,236.766,""
197438,20,0.00186582,1015.51,0.000435328,236.935,""
197788,20,0.00186261,1016.16,0.000434579,237.088,""
198210,20,0.00185886,1016.94,0.000433706,237.271,""
198501,20,0.00185607,1017.48,0.000433054,237.397,""
198848,20,0.00185262,1018.13,0.00043225,237.547,""
199095,20,0.00184974,1018.58,0.000431577,237.654,""
199509,20,0.00184608,1019.35,0.000430722,237.833,""
199815,20,0.00184363,1019.91,0.000430152,237.964,""
200362,20,0.00183734,1020.92,0.000428684,238.199,""
200720,20,0.00183523,1021.58,0.000428193,238.353,""
201016,20,0.00183268,1022.12,0.000427596,238.479,""
201285,20,0.00183009,1022.61,0.000426993,238.594,""
201481,20,0.00182888,1022.97,0.000426711,238.678,""
201794,20,0.00182628,1023.54,0.000426104,238.811,""
202086,20,0.00182331,1024.08,0.000425411,238.936,""
202328,20,0.00182145,1024.52,0.000424978,239.038,""
202564,20,0.00181894,1024.95,0.000424391,239.139,""
202986,20,0.0018147,1025.72,0.000423402,239.318,""
203250,20,0.00181264,1026.19,0.00042292,239.43,""
203696,20,0.00180783,1027,0.000421799,239.618,""
204142,20,0.00180331,1027.81,0.000420744,239.805,""
204473,20,0.00180078,1028.4,0.000420155,239.945,""
204878,20,0.00179682,1029.13,0.000419231,240.115,""
205181,20,0.00179396,1029.68,0.000418563,240.242,""
205665,20,0.00179048,1030.54,0.000417751,240.444,""
205948,20,0.00178895,1031.05,0.000417393,240.562,""
206384,20,0.0017838,1031.83,0.000416191,240.744,""
207115,20,0.00177749,1033.13,0.00041472,241.048,""
207596,20,0.00177451,1033.99,0.000414024,241.247,""
207893,20,0.00177169,1034.51,0.000413367,241.37,""
208196,20,0.00176924,1035.05,0.000412795,241.495,""
208519,20,0.00176704,1035.62,0.000412281,241.629,""
208817,20,0.00176381,1036.15,0.000411528,241.751,""
209149,20,0.00176112,1036.73,0.0004109,241.888,""
209626,20,0.00175712,1037.57,0.000409968,242.083,""
210130,20,0.00175229,1038.45,0.00040884,242.29,""
210513,20,0.00174965,1039.12,0.000408224,242.446,""
210751,20,0.00174724,1039.54,0.000407663,242.543,""
211031,20,0.00174428,1040.03,0.000406971,242.657,""
211280,20,0.00174321,1040.46,0.000406722,242.759,""
211467,20,0.00174033,1040.79,0.00040605,242.835,""
211846,20,0.00173753,1041.45,0.000405397,242.989,""
212240,20,0.00173416,1042.13,0.00040461,243.148,""
212569,20,0.00173245,1042.7,0.000404211,243.281,""
212864,20,0.00172931,1043.21,0.00040348,243.4,""
213211,20,0.00172696,1043.81,0.000402931,243.54,""
213675,20,0.00172267,1044.61,0.000401929,243.727,""
213918,20,0.00172031,1045.03,0.000401378,243.825,""
214387,20,0.00171646,1045.84,0.000400481,244.013,""
214844,20,0.00171318,1046.62,0.000399714,244.195,""
215037,20,0.00171159,1046.95,0.000399344,244.273,""
215463,20,0.0017078,1047.68,0.000398459,244.443,""
215962,20,0.0017038,1048.53,0.000397526,244.641,""
216314,20,0.00170232,1049.13,0.000397181,244.781,""
216515,20,0.00170022,1049.47,0.000396692,244.861,""
216844,20,0.00169828,1050.03,0.000396239,244.991,""
217216,20,0.00169506,1050.66,0.000395488,245.138,""
217446,20,0.00169387,1051.05,0.000395209,245.229,""
218101,20,0.00168859,1052.16,0.000393977,245.488,""
218423,20,0.00168535,1052.7,0.000393223,245.615,""
218698,20,0.00168299,1053.17,0.000392672,245.723,""
219083,20,0.0016804,1053.81,0.000392068,245.873,""
219853,20,0.00167423,1055.11,0.000390627,246.175,""
220478,20,0.0016694,1056.15,0.0003895,246.419,""
220804,20,0.00166598,1056.69,0.000388702,246.546,""
221244,20,0.00166317,1057.43,0.000388047,246.717,""
221621,20,0.00165999,1058.05,0.000387305,246.863,""
221876,20,0.00165782,1058.48,0.000386798,246.961,""
222244,20,0.00165512,1059.09,0.00038617,247.104,""
222576,20,0.00165273,1059.63,0.000385611,247.232,""
222987,20,0.0016491,1060.31,0.000384765,247.39,""
223521,20,0.00164501,1061.19,0.000383809,247.595,""
223822,20,0.00164167,1061.69,0.000383031,247.711,""
224084,20,0.00163987,1062.12,0.000382612,247.811,""
224677,20,0.00163522,1063.09,0.000381525,248.037,""
224889,20,0.00163374,1063.44,0.00038118,248.119,""
225149,20,0.0016321,1063.86,0.000380798,248.218,""
226118,20,0.00162334,1065.44,0.000378755,248.586,""
226378,20,0.00162246,1065.86,0.000378548,248.684,""
226726,20,0.00161897,1066.42,0.000377734,248.815,""
227098,20,0.00161665,1067.03,0.000377192,248.956,""
227558,20,0.0016126,1067.77,0.000376248,249.129,""
228028,20,0.00160874,1068.53,0.000375348,249.306,""
228318,20,0.00160705,1068.99,0.000374954,249.415,""
228592,20,0.00160449,1069.43,0.000374356,249.518,""
229155,20,0.00160101,1070.33,0.000373544,249.728,""
229477,20,0.00159873,1070.85,0.000373013,249.848,""
229871,20,0.00159547,1071.48,0.000372252,249.995,""
230379,20,0.00159223,1072.29,0.000371496,250.184,""
230807,20,0.00158906,1072.97,0.000370755,250.343,""
231243,20,0.0015847,1073.66,0.000369738,250.504,""
231481,20,0.001583,1074.04,0.000369342,250.592,""
232036,20,0.0015784,1074.92,0.000368268,250.797,""
232252,20,0.00157698,1075.26,0.000367938,250.876,""
232733,20,0.00157284,1076.01,0.000366972,251.053,""
233253,20,0.00156813,1076.83,0.000365872,251.244,""
233640,20,0.00156565,1077.44,0.000365293,251.385,""
234130,20,0.00156173,1078.2,0.00036438,251.564,""
234594,20,0.00155894,1078.93,0.000363729,251.733,""
234815,20,0.00155681,1079.27,0.000363232,251.813,""
235207,20,0.00155373,1079.88,0.000362512,251.956,""
235581,20,0.00155067,1080.46,0.0003618,252.091,""
236094,20,0.00154719,1081.26,0.000360987,252.276,""
236486,20,0.00154378,1081.86,0.000360191,252.418,""
236710,20,0.00154204,1082.21,0.000359784,252.498,""
237225,20,0.00153879,1083,0.000359026,252.684,""
237903,20,0.0015336,1084.04,0.000357815,252.926,""
238164,20,0.00153129,1084.44,0.000357277,253.02,""
238383,20,0.00153061,1084.78,0.000357118,253.098,""
238746,20,0.00152688,1085.33,0.000356248,253.227,""
238981,20,0.00152569,1085.69,0.000355971,253.311,""
239216,20,0.00152393,1086.05,0.000355561,253.394,""
239555,20,0.00152053,1086.57,0.000354766,253.515,""
239891,20,0.00151937,1087.08,0.000354496,253.634,""
240209,20,0.0015174,1087.56,0.000354037,253.747,""
240690,20,0.00151345,1088.29,0.000353114,253.917,""
241022,20,0.00151189,1088.79,0.00035275,254.034,""
241288,20,0.00150922,1089.19,0.000352128,254.128,""
241549,20,0.00150749,1089.59,0.000351725,254.22,""
241860,20,0.00150539,1090.05,0.000351234,254.329,""
242259,20,0.00150263,1090.65,0.000350591,254.469,""
242661,20,0.00149959,1091.26,0.00034988,254.61,""
243041,20,0.00149683,1091.83,0.000349237,254.743,""
243410,20,0.00149324,1092.38,0.0003484,254.871,""
243635,20,0.00149193,1092.71,0.000348093,254.95,""
243881,20,0.00148997,1093.08,0.000347637,255.035,""
244188,20,0.00148777,1093.54,0.000347124,255.142,""
244401,20,0.00148598,1093.85,0.000346705,255.216,""
244659,20,0.001484,1094.24,0.000346244,255.305,""
244942,20,0.00148204,1094.66,0.000345785,255.403,""
245721,20,0.00147682,1095.81,0.000344568,255.672,""
246106,20,0.00147364,1096.38,0.000343827,255.805,""
246780,20,0.00146935,1097.37,0.000342827,256.036,""
247243,20,0.00146567,1098.05,0.000341966,256.194,""
247434,20,0.00146393,1098.33,0.000341562,256.26,""
247774,20,0.00146168,1098.83,0.000341035,256.376,""
248229,20,0.0014585,1099.49,0.000340293,256.531,""
248569,20,0.0014558,1099.99,0.000339665,256.646,""
248930,20,0.00145243,1100.51,0.000338879,256.769,""
249159,20,0.0014508,1100.84,0.000338497,256.846,""
249366,20,0.00144865,1101.14,0.000337996,256.917,""
249574,20,0.00144754,1101.45,0.000337736,256.987,""
250083,20,0.00144351,1102.18,0.000336798,257.158,""
250462,20,0.00144043,1102.73,0.000336079,257.286,""
250853,20,0.0014374,1103.29,0.000335371,257.417,""
251411,20,0.00143441,1104.09,0.000334673,257.604,""
251856,20,0.00143126,1104.73,0.000333937,257.753,""
252121,20,0.00142943,1105.11,0.000333511,257.841,""
252479,20,0.00142654,1105.62,0.000332837,257.96,""
252888,20,0.00142271,1106.2,0.000331944,258.096,""
253249,20,0.00142047,1106.71,0.000331421,258.216,""
253553,20,0.00141823,1107.14,0.000330897,258.317,""
254277,20,0.00141258,1108.17,0.00032958,258.556,""
254535,20,0.00141066,1108.53,0.000329133,258.641,""
254984,20,0.00140739,1109.17,0.000328368,258.789,""
255464,20,0.00140498,1109.84,0.000327807,258.946,""
256091,20,0.0013999,1110.72,0.000326623,259.151,""
256626,20,0.00139601,1111.47,0.000325715,259.326,""
257027,20,0.00139383,1112.03,0.000325206,259.456,""
257524,20,0.00139026,1112.72,0.000324373,259.618,""
257816,20,0.00138863,1113.13,0.000323993,259.712,""
258146,20,0.00138672,1113.59,0.000323546,259.819,""
258501,20,0.00138435,1114.08,0.000322994,259.934,""
258910,20,0.00138113,1114.64,0.000322243,260.066,""
259239,20,0.00137998,1115.1,0.000321975,260.172,""
259730,20,0.00137672,1115.77,0.000321212,260.33,""
260049,20,0.00137478,1116.21,0.00032076,260.432,""
260382,20,0.00137218,1116.67,0.000320155,260.539,""
260733,20,0.00136974,1117.15,0.000319584,260.651,""
261077,20,0.00136815,1117.62,0.000319214,260.761,""
261525,20,0.00136459,1118.23,0.000318384,260.904,""
261874,20,0.00136165,1118.71,0.000317697,261.015,""
262246,20,0.00135926,1119.22,0.00031714,261.133,""
262505,20,0.00135798,1119.57,0.000316841,261.215,""
262913,20,0.00135552,1120.12,0.000316268,261.344,""
263293,20,0.00135346,1120.64,0.000315785,261.464,""
263699,20,0.00135066,1121.19,0.000315133,261.592,""
263972,20,0.00134901,1121.55,0.000314747,261.678,""
264377,20,0.00134577,1122.1,0.000313993,261.806,""
264809,20,0.00134279,1122.68,0.000313298,261.941,""
265034,20,0.00134132,1122.98,0.000312954,262.012,""
265337,20,0.0013384,1123.39,0.000312272,262.106,""
265922,20,0.00133488,1124.17,0.000311452,262.289,""
266190,20,0.00133241,1124.53,0.000310876,262.372,""
266569,20,0.00133024,1125.03,0.00031037,262.49,""
266826,20,0.00132847,1125.37,0.000309957,262.57,""
267119,20,0.00132702,1125.76,0.000309617,262.661,""
267625,20,0.00132336,1126.43,0.000308762,262.817,""
268240,20,0.00131822,1127.25,0.000307564,263.006,""
268571,20,0.00131526,1127.68,0.000306873,263.108,""
268884,20,0.00131355,1128.09,0.000306475,263.204,""
269209,20,0.00131114,1128.52,0.000305913,263.304,""
269573,20,0.00130878,1129,0.000305362,263.415,""
269890,20,0.00130555,1129.41,0.000304608,263.511,""
270340,20,0.00130351,1130,0.000304133,263.648,""
270928,20,0.00129935,1130.76,0.00030316,263.827,""
271325,20,0.00129664,1131.28,0.000302529,263.947,""
271607,20,0.00129447,1131.64,0.000302023,264.032,""
272145,20,0.00129125,1132.34,0.000301272,264.195,""
272582,20,0.00128947,1132.9,0.000300856,264.326,""
273164,20,0.00128574,1133.65,0.000299985,264.501,""
273621,20,0.00128356,1134.24,0.000299477,264.638,""
273961,20,0.00128082,1134.67,0.000298838,264.74,""
274317,20,0.00127821,1135.13,0.00029823,264.846,""
274773,20,0.00127472,1135.71,0.000297415,264.982,""
275136,20,0.0012732,1136.17,0.000297061,265.09,""
275746,20,0.00126899,1136.95,0.000296077,265.271,""
276119,20,0.00126656,1137.42,0.00029551,265.381,""
276440,20,0.00126478,1137.83,0.000295095,265.476,""
276760,20,0.00126163,1138.23,0.000294361,265.57,""
277296,20,0.00125725,1138.91,0.000293338,265.728,""
277776,20,0.001253,1139.51,0.000292347,265.868,""
278521,20,0.00124733,1140.44,0.000291025,266.085,""
278847,20,0.00124617,1140.85,0.000290754,266.18,""
279186,20,0.0012445,1141.27,0.000290363,266.279,""
279535,20,0.00124147,1141.7,0.000289657,266.38,""
279828,20,0.00124015,1142.07,0.00028935,266.465,""
280262,20,0.00123755,1142.61,0.000288743,266.59,""
280548,20,0.00123573,1142.96,0.000288318,266.673,""
280809,20,0.00123336,1143.28,0.000287765,266.748,""
281188,20,0.00123058,1143.75,0.000287115,266.857,""
281401,20,0.00122981,1144.01,0.000286937,266.918,""
281644,20,0.00122799,1144.31,0.000286512,266.988,""
281882,20,0.00122599,1144.6,0.000286045,267.056,""
282053,20,0.00122585,1144.81,0.000286012,267.105,""
282217,20,0.00122483,1145.01,0.000285774,267.152,""
282582,20,0.00122174,1145.46,0.000285055,267.256,""
283025,20,0.00121907,1146,0.000284432,267.382,""
283394,20,0.00121733,1146.45,0.000284024,267.487,""
283716,20,0.00121421,1146.84,0.000283296,267.578,""
284231,20,0.00121048,1147.46,0.000282426,267.724,""
284578,20,0.0012084,1147.88,0.000281942,267.822,""
284839,20,0.00120703,1148.2,0.000281622,267.895,""
285154,20,0.00120529,1148.58,0.000281214,267.984,""
285771,20,0.00120175,1149.32,0.000280389,268.157,""
286177,20,0.00119835,1149.81,0.000279597,268.271,""
286623,20,0.00119644,1150.34,0.000279151,268.396,""
287255,20,0.00119271,1151.1,0.000278281,268.571,""
287547,20,0.00119043,1151.45,0.000277749,268.653,""
287934,20,0.00118795,1151.91,0.000277169,268.76,""
288274,20,0.00118556,1152.31,0.000276611,268.854,""
288654,20,0.00118372,1152.76,0.000276183,268.959,""
289293,20,0.00117934,1153.51,0.00027516,269.135,""
289961,20,0.00117563,1154.3,0.000274295,269.319,""
290527,20,0.00117317,1154.97,0.000273721,269.474,""
291049,20,0.00116967,1155.58,0.000272905,269.617,""
291345,20,0.00116753,1155.92,0.000272405,269.698,""
291619,20,0.00116528,1156.24,0.000271881,269.772,""
292370,20,0.00115951,1157.12,0.000270534,269.976,""
292653,20,0.00115831,1157.44,0.000270255,270.052,""
292893,20,0.00115688,1157.72,0.000269921,270.117,""
293534,20,0.00115292,1158.46,0.000268997,270.29,""
293535,20,NaN,NaN,NaN,NaN,"Ampoule removed"
294962,20,NaN,NaN,NaN,NaN,""
294964,20,NaN,NaN,NaN,NaN,""
294965,20,NaN,NaN,NaN,NaN,""
294966,20,NaN,NaN,NaN,NaN,""
294967,20,NaN,NaN,NaN,NaN,""
294968,20,NaN,NaN,NaN,NaN,""
294969,20,NaN,NaN,NaN,NaN,""
294970,20,NaN,NaN,NaN,NaN,""
294971,20,NaN,NaN,NaN,NaN,""
294972,20,NaN,NaN,NaN,NaN,""
294973,20,NaN,NaN,NaN,NaN,""
294974,20,NaN,NaN,NaN,NaN,""
294975,20,NaN,NaN,NaN,NaN,""
294976,20,NaN,NaN,NaN,NaN,""
294977,20,NaN,NaN,NaN,NaN,""
294978,20,NaN,NaN,NaN,NaN,""
294979,20,NaN,NaN,NaN,NaN,""
294980,20,NaN,NaN,NaN,NaN,""
294981,20,NaN,NaN,NaN,NaN,""
294982,20,NaN,NaN,NaN,NaN,""
294983,20,NaN,NaN,NaN,NaN,""
294984,20,NaN,NaN,NaN,NaN,""
294985,20,NaN,NaN,NaN,NaN,""
294986,20,NaN,NaN,NaN,NaN,""
294987,20,NaN,NaN,NaN,NaN,""
294988,20,NaN,NaN,NaN,NaN,""
294989,20,NaN,NaN,NaN,NaN,""
294990,20,NaN,NaN,NaN,NaN,""
294991,20,NaN,NaN,NaN,NaN,""
294992,20,NaN,NaN,NaN,NaN,""
294993,20,NaN,NaN,NaN,NaN,""
294994,20,NaN,NaN,NaN,NaN,""
294995,20,NaN,NaN,NaN,NaN,""
294996,20,NaN,NaN,NaN,NaN,""
294997,20,NaN,NaN,NaN,NaN,""
294998,20,NaN,NaN,NaN,NaN,""
294999,20,NaN,NaN,NaN,NaN,""
295000,20,NaN,NaN,NaN,NaN,""
295001,20,NaN,NaN,NaN,NaN,""
295002,20,NaN,NaN,NaN,NaN,""
295003,20,NaN,NaN,NaN,NaN,""
295004,20,NaN,NaN,NaN,NaN,""
295005,20,NaN,NaN,NaN,NaN,""
295006,20,NaN,NaN,NaN,NaN,""
295007,20,NaN,NaN,NaN,NaN,""
295008,20,NaN,NaN,NaN,NaN,""
295009,20,NaN,NaN,NaN,NaN,""
295010,20,NaN,NaN,NaN,NaN,""
295011,20,NaN,NaN,NaN,NaN,""
295012,20,NaN,NaN,NaN,NaN,""
295013,20,NaN,NaN,NaN,NaN,""
295014,20,NaN,NaN,NaN,NaN,""
295015,20,NaN,NaN,NaN,NaN,""
295016,20,NaN,NaN,NaN,NaN,""
295017,20,NaN,NaN,NaN,NaN,""
295018,20,NaN,NaN,NaN,NaN,""
295019,20,NaN,NaN,NaN,NaN,""
295020,20,NaN,NaN,NaN,NaN,""
295021,20,NaN,NaN,NaN,NaN,""